File: Data/2022-03-23 MQ HCF/CV-Carbon-CuHCF-2.txt
Mar. 22, 2022   19:28:35
Cyclic Voltammetry
File: d:\mq\20220322-pba stability\cv-carbon-cuhcf-2.txt
Data Source:  Experiment
Instrument Model:  CHI840D
Header:
Note:

Init E (V) = 0.2
High E (V) = 1.1
Low E (V) = 0.2
Init P/N = P
Scan Rate (V/s) = 0.05
Segment = 100
Sample Interval (V) = 0.001
Quiet Time (sec) = 2
Sensitivity (A/V) = 1e-5

Segment 1:
Ep = 0.718V
ip = 3.883e-6A
Ah = 8.846e-6C

Segment 2:

Segment 3:
Ep = 0.723V
ip = 5.381e-6A
Ah = 1.327e-5C

Segment 4:

Segment 5:
Ep = 0.727V
ip = 5.732e-6A
Ah = 1.462e-5C

Segment 6:

Segment 7:

Segment 8:

Segment 9:

Segment 10:

Segment 11:

Segment 12:

Segment 13:

Segment 14:

Segment 15:

Segment 16:

Segment 17:

Segment 18:

Segment 19:

Segment 20:

Segment 21:

Segment 22:

Segment 23:

Segment 24:

Segment 25:

Segment 26:

Segment 27:

Segment 28:

Segment 29:

Segment 30:

Segment 31:

Segment 32:

Segment 33:

Segment 34:

Segment 35:

Segment 36:

Segment 37:

Segment 38:

Segment 39:

Segment 40:

Segment 41:

Segment 42:

Segment 43:

Segment 44:

Segment 45:

Segment 46:

Segment 47:

Segment 48:

Segment 49:

Segment 50:

Segment 51:

Segment 52:

Segment 53:

Segment 54:

Segment 55:

Segment 56:

Segment 57:

Segment 58:

Segment 59:

Segment 60:

Segment 61:

Segment 62:

Segment 63:

Segment 64:

Segment 65:

Segment 66:

Segment 67:

Segment 68:

Segment 69:

Segment 70:

Segment 71:

Segment 72:

Segment 73:

Segment 74:

Segment 75:

Segment 76:

Segment 77:

Segment 78:

Segment 79:

Segment 80:

Segment 81:

Segment 82:

Segment 83:

Segment 84:

Segment 85:

Segment 86:

Segment 87:

Segment 88:

Segment 89:

Segment 90:

Segment 91:

Segment 92:

Segment 93:

Segment 94:

Segment 95:

Segment 96:

Segment 97:

Segment 98:

Segment 99:

Segment 100:

Potential/V, Current/A

0.200, -2.981e-7
0.260, -1.141e-7
0.320, 1.296e-8
0.380, 3.657e-7
0.440, 1.131e-6
0.500, 1.870e-6
0.560, 3.141e-6
0.620, 5.569e-6
0.680, 7.677e-6
0.740, 7.913e-6
0.800, 5.656e-6
0.860, 3.889e-6
0.920, 3.408e-6
0.980, 3.191e-6
1.040, 3.062e-6
1.100, 2.996e-6
1.040, 1.596e-6
0.980, 9.629e-7
0.920, 3.183e-7
0.860, -4.827e-7
0.800, -1.509e-6
0.740, -2.999e-6
0.680, -4.848e-6
0.620, -6.953e-6
0.560, -9.223e-6
0.500, -1.098e-5
0.440, -6.194e-6
0.380, -1.193e-6
0.320, -6.797e-7
0.260, -4.992e-7
0.200, -4.280e-7
0.260, -1.204e-7
0.320, 2.229e-8
0.380, 3.887e-7
0.440, 1.148e-6
0.500, 2.141e-6
0.560, 4.157e-6
0.620, 7.446e-6
0.680, 1.033e-5
0.740, 1.094e-5
0.800, 7.788e-6
0.860, 3.516e-6
0.920, 2.357e-6
0.980, 1.959e-6
1.040, 1.855e-6
1.100, 1.937e-6
1.040, 9.580e-7
0.980, 5.081e-7
0.920, -5.040e-8
0.860, -8.850e-7
0.800, -1.993e-6
0.740, -3.565e-6
0.680, -5.478e-6
0.620, -7.545e-6
0.560, -9.833e-6
0.500, -1.190e-5
0.440, -9.156e-6
0.380, -1.460e-6
0.320, -7.336e-7
0.260, -5.332e-7
0.200, -4.621e-7
0.260, -1.299e-7
0.320, 9.772e-9
0.380, 3.446e-7
0.440, 1.043e-6
0.500, 2.151e-6
0.560, 4.436e-6
0.620, 8.019e-6
0.680, 1.123e-5
0.740, 1.214e-5
0.800, 9.111e-6
0.860, 3.937e-6
0.920, 2.213e-6
0.980, 1.615e-6
1.040, 1.426e-6
1.100, 1.494e-6
1.040, 6.486e-7
0.980, 2.761e-7
0.920, -2.366e-7
0.860, -1.075e-6
0.800, -2.208e-6
0.740, -3.784e-6
0.680, -5.719e-6
0.620, -7.766e-6
0.560, -1.004e-5
0.500, -1.218e-5
0.440, -1.031e-5
0.380, -1.762e-6
0.320, -7.944e-7
0.260, -5.637e-7
0.200, -4.859e-7
0.260, -1.360e-7
0.320, 3.709e-10
0.380, 3.118e-7
0.440, 9.560e-7
0.500, 2.119e-6
0.560, 4.533e-6
0.620, 8.241e-6
0.680, 1.161e-5
0.740, 1.267e-5
0.800, 9.742e-6
0.860, 4.219e-6
0.920, 2.183e-6
0.980, 1.455e-6
1.040, 1.207e-6
1.100, 1.253e-6
1.040, 4.772e-7
0.980, 1.462e-7
0.920, -3.319e-7
0.860, -1.160e-6
0.800, -2.294e-6
0.740, -3.851e-6
0.680, -5.781e-6
0.620, -7.823e-6
0.560, -1.006e-5
0.500, -1.219e-5
0.440, -1.067e-5
0.380, -2.060e-6
0.320, -8.656e-7
0.260, -5.957e-7
0.200, -5.064e-7
0.260, -1.412e-7
0.320, -6.554e-9
0.380, 2.839e-7
0.440, 8.802e-7
0.500, 2.061e-6
0.560, 4.531e-6
0.620, 8.285e-6
0.680, 1.172e-5
0.740, 1.287e-5
0.800, 1.001e-5
0.860, 4.378e-6
0.920, 2.180e-6
0.980, 1.374e-6
1.040, 1.085e-6
1.100, 1.111e-6
1.040, 3.769e-7
0.980, 7.344e-8
0.920, -3.747e-7
0.860, -1.181e-6
0.800, -2.303e-6
0.740, -3.835e-6
0.680, -5.748e-6
0.620, -7.788e-6
0.560, -9.987e-6
0.500, -1.205e-5
0.440, -1.062e-5
0.380, -2.349e-6
0.320, -9.620e-7
0.260, -6.420e-7
0.200, -5.357e-7
0.260, -1.509e-7
0.320, -1.705e-8
0.380, 2.533e-7
0.440, 8.064e-7
0.500, 1.981e-6
0.560, 4.463e-6
0.620, 8.211e-6
0.680, 1.166e-5
0.740, 1.287e-5
0.800, 1.010e-5
0.860, 4.488e-6
0.920, 2.199e-6
0.980, 1.339e-6
1.040, 1.018e-6
1.100, 1.027e-6
1.040, 3.192e-7
0.980, 3.378e-8
0.920, -3.901e-7
0.860, -1.169e-6
0.800, -2.270e-6
0.740, -3.775e-6
0.680, -5.665e-6
0.620, -7.700e-6
0.560, -9.859e-6
0.500, -1.184e-5
0.440, -1.036e-5
0.380, -2.610e-6
0.320, -1.076e-6
0.260, -7.019e-7
0.200, -5.762e-7
0.260, -1.663e-7
0.320, -3.140e-8
0.380, 2.222e-7
0.440, 7.382e-7
0.500, 1.894e-6
0.560, 4.360e-6
0.620, 8.075e-6
0.680, 1.149e-5
0.740, 1.273e-5
0.800, 1.007e-5
0.860, 4.585e-6
0.920, 2.238e-6
0.980, 1.333e-6
1.040, 9.853e-7
1.100, 9.786e-7
1.040, 2.844e-7
0.980, 1.242e-8
0.920, -3.919e-7
0.860, -1.143e-6
0.800, -2.220e-6
0.740, -3.698e-6
0.680, -5.559e-6
0.620, -7.588e-6
0.560, -9.704e-6
0.500, -1.161e-5
0.440, -1.002e-5
0.380, -2.815e-6
0.320, -1.191e-6
0.260, -7.670e-7
0.200, -6.201e-7
0.260, -1.844e-7
0.320, -4.704e-8
0.380, 1.927e-7
0.440, 6.766e-7
0.500, 1.809e-6
0.560, 4.245e-6
0.620, 7.908e-6
0.680, 1.127e-5
0.740, 1.252e-5
0.800, 9.983e-6
0.860, 4.669e-6
0.920, 2.287e-6
0.980, 1.343e-6
1.040, 9.717e-7
1.100, 9.500e-7
1.040, 2.638e-7
0.980, 7.374e-10
0.920, -3.872e-7
0.860, -1.113e-6
0.800, -2.164e-6
0.740, -3.616e-6
0.680, -5.447e-6
0.620, -7.466e-6
0.560, -9.536e-6
0.500, -1.136e-5
0.440, -9.649e-6
0.380, -2.966e-6
0.320, -1.295e-6
0.260, -8.298e-7
0.200, -6.631e-7
0.260, -2.023e-7
0.320, -6.198e-8
0.380, 1.666e-7
0.440, 6.247e-7
0.500, 1.731e-6
0.560, 4.129e-6
0.620, 7.731e-6
0.680, 1.102e-5
0.740, 1.226e-5
0.800, 9.846e-6
0.860, 4.739e-6
0.920, 2.342e-6
0.980, 1.364e-6
1.040, 9.709e-7
1.100, 9.350e-7
1.040, 2.517e-7
0.980, -3.879e-9
0.920, -3.783e-7
0.860, -1.081e-6
0.800, -2.104e-6
0.740, -3.529e-6
0.680, -5.329e-6
0.620, -7.332e-6
0.560, -9.358e-6
0.500, -1.110e-5
0.440, -9.256e-6
0.380, -3.076e-6
0.320, -1.393e-6
0.260, -8.937e-7
0.200, -7.073e-7
0.260, -2.212e-7
0.320, -7.766e-8
0.380, 1.409e-7
0.440, 5.768e-7
0.500, 1.655e-6
0.560, 4.009e-6
0.620, 7.543e-6
0.680, 1.075e-5
0.740, 1.197e-5
0.800, 9.668e-6
0.860, 4.793e-6
0.920, 2.399e-6
0.980, 1.393e-6
1.040, 9.796e-7
1.100, 9.299e-7
1.040, 2.463e-7
0.980, -4.473e-9
0.920, -3.672e-7
0.860, -1.047e-6
0.800, -2.044e-6
0.740, -3.441e-6
0.680, -5.208e-6
0.620, -7.192e-6
0.560, -9.170e-6
0.500, -1.083e-5
0.440, -8.871e-6
0.380, -3.153e-6
0.320, -1.479e-6
0.260, -9.522e-7
0.200, -7.498e-7
0.260, -2.395e-7
0.320, -9.342e-8
0.380, 1.171e-7
0.440, 5.331e-7
0.500, 1.583e-6
0.560, 3.889e-6
0.620, 7.352e-6
0.680, 1.047e-5
0.740, 1.166e-5
0.800, 9.467e-6
0.860, 4.830e-6
0.920, 2.456e-6
0.980, 1.424e-6
1.040, 9.929e-7
1.100, 9.298e-7
1.040, 2.439e-7
0.980, -2.918e-9
0.920, -3.555e-7
0.860, -1.015e-6
0.800, -1.985e-6
0.740, -3.353e-6
0.680, -5.087e-6
0.620, -7.048e-6
0.560, -8.982e-6
0.500, -1.057e-5
0.440, -8.496e-6
0.380, -3.203e-6
0.320, -1.553e-6
0.260, -1.006e-6
0.200, -7.898e-7
0.260, -2.572e-7
0.320, -1.076e-7
0.380, 9.541e-8
0.440, 4.943e-7
0.500, 1.516e-6
0.560, 3.774e-6
0.620, 7.166e-6
0.680, 1.019e-5
0.740, 1.134e-5
0.800, 9.247e-6
0.860, 4.847e-6
0.920, 2.505e-6
0.980, 1.456e-6
1.040, 1.009e-6
1.100, 9.343e-7
1.040, 2.445e-7
0.980, 1.728e-10
0.920, -3.434e-7
0.860, -9.837e-7
0.800, -1.927e-6
0.740, -3.266e-6
0.680, -4.968e-6
0.620, -6.905e-6
0.560, -8.791e-6
0.500, -1.030e-5
0.440, -8.147e-6
0.380, -3.232e-6
0.320, -1.615e-6
0.260, -1.054e-6
0.200, -8.272e-7
0.260, -2.734e-7
0.320, -1.210e-7
0.380, 7.572e-8
0.440, 4.604e-7
0.500, 1.456e-6
0.560, 3.669e-6
0.620, 6.990e-6
0.680, 9.923e-6
0.740, 1.103e-5
0.800, 9.014e-6
0.860, 4.840e-6
0.920, 2.546e-6
0.980, 1.485e-6
1.040, 1.027e-6
1.100, 9.425e-7
1.040, 2.469e-7
0.980, 4.512e-9
0.920, -3.313e-7
0.860, -9.539e-7
0.800, -1.872e-6
0.740, -3.181e-6
0.680, -4.851e-6
0.620, -6.763e-6
0.560, -8.603e-6
0.500, -1.005e-5
0.440, -7.820e-6
0.380, -3.242e-6
0.320, -1.666e-6
0.260, -1.095e-6
0.200, -8.609e-7
0.260, -2.879e-7
0.320, -1.331e-7
0.380, 5.836e-8
0.440, 4.292e-7
0.500, 1.401e-6
0.560, 3.569e-6
0.620, 6.820e-6
0.680, 9.663e-6
0.740, 1.073e-5
0.800, 8.782e-6
0.860, 4.819e-6
0.920, 2.578e-6
0.980, 1.513e-6
1.040, 1.045e-6
1.100, 9.515e-7
1.040, 2.497e-7
0.980, 8.979e-9
0.920, -3.197e-7
0.860, -9.257e-7
0.800, -1.820e-6
0.740, -3.102e-6
0.680, -4.738e-6
0.620, -6.624e-6
0.560, -8.420e-6
0.500, -9.798e-6
0.440, -7.522e-6
0.380, -3.239e-6
0.320, -1.706e-6
0.260, -1.130e-6
0.200, -8.911e-7
0.260, -3.007e-7
0.320, -1.435e-7
0.380, 4.320e-8
0.440, 4.020e-7
0.500, 1.351e-6
0.560, 3.475e-6
0.620, 6.658e-6
0.680, 9.412e-6
0.740, 1.043e-5
0.800, 8.549e-6
0.860, 4.785e-6
0.920, 2.602e-6
0.980, 1.536e-6
1.040, 1.061e-6
1.100, 9.600e-7
1.040, 2.530e-7
0.980, 1.350e-8
0.920, -3.088e-7
0.860, -8.989e-7
0.800, -1.770e-6
0.740, -3.024e-6
0.680, -4.629e-6
0.620, -6.488e-6
0.560, -8.242e-6
0.500, -9.554e-6
0.440, -7.241e-6
0.380, -3.226e-6
0.320, -1.738e-6
0.260, -1.161e-6
0.200, -9.172e-7
0.260, -3.121e-7
0.320, -1.524e-7
0.380, 2.957e-8
0.440, 3.777e-7
0.500, 1.304e-6
0.560, 3.386e-6
0.620, 6.503e-6
0.680, 9.169e-6
0.740, 1.014e-5
0.800, 8.320e-6
0.860, 4.742e-6
0.920, 2.619e-6
0.980, 1.557e-6
1.040, 1.077e-6
1.100, 9.692e-7
1.040, 2.564e-7
0.980, 1.803e-8
0.920, -2.977e-7
0.860, -8.727e-7
0.800, -1.723e-6
0.740, -2.949e-6
0.680, -4.524e-6
0.620, -6.354e-6
0.560, -8.066e-6
0.500, -9.314e-6
0.440, -6.974e-6
0.380, -3.204e-6
0.320, -1.761e-6
0.260, -1.186e-6
0.200, -9.394e-7
0.260, -3.214e-7
0.320, -1.603e-7
0.380, 1.741e-8
0.440, 3.554e-7
0.500, 1.260e-6
0.560, 3.300e-6
0.620, 6.352e-6
0.680, 8.934e-6
0.740, 9.855e-6
0.800, 8.094e-6
0.860, 4.688e-6
0.920, 2.630e-6
0.980, 1.576e-6
1.040, 1.092e-6
1.100, 9.783e-7
1.040, 2.605e-7
0.980, 2.252e-8
0.920, -2.875e-7
0.860, -8.480e-7
0.800, -1.676e-6
0.740, -2.877e-6
0.680, -4.422e-6
0.620, -6.225e-6
0.560, -7.895e-6
0.500, -9.084e-6
0.440, -6.726e-6
0.380, -3.176e-6
0.320, -1.779e-6
0.260, -1.207e-6
0.200, -9.588e-7
0.260, -3.295e-7
0.320, -1.668e-7
0.380, 6.364e-9
0.440, 3.347e-7
0.500, 1.219e-6
0.560, 3.218e-6
0.620, 6.207e-6
0.680, 8.710e-6
0.740, 9.588e-6
0.800, 7.876e-6
0.860, 4.629e-6
0.920, 2.633e-6
0.980, 1.590e-6
1.040, 1.105e-6
1.100, 9.871e-7
1.040, 2.641e-7
0.980, 2.687e-8
0.920, -2.777e-7
0.860, -8.249e-7
0.800, -1.632e-6
0.740, -2.809e-6
0.680, -4.325e-6
0.620, -6.099e-6
0.560, -7.730e-6
0.500, -8.862e-6
0.440, -6.501e-6
0.380, -3.146e-6
0.320, -1.790e-6
0.260, -1.224e-6
0.200, -9.757e-7
0.260, -3.363e-7
0.320, -1.724e-7
0.380, -2.462e-9
0.440, 3.193e-7
0.500, 1.183e-6
0.560, 3.143e-6
0.620, 6.072e-6
0.680, 8.496e-6
0.740, 9.328e-6
0.800, 7.659e-6
0.860, 4.563e-6
0.920, 2.632e-6
0.980, 1.601e-6
1.040, 1.117e-6
1.100, 9.964e-7
1.040, 2.677e-7
0.980, 3.131e-8
0.920, -2.679e-7
0.860, -8.018e-7
0.800, -1.589e-6
0.740, -2.741e-6
0.680, -4.228e-6
0.620, -5.974e-6
0.560, -7.566e-6
0.500, -8.639e-6
0.440, -6.281e-6
0.380, -3.111e-6
0.320, -1.798e-6
0.260, -1.237e-6
0.200, -9.897e-7
0.260, -3.414e-7
0.320, -1.766e-7
0.380, -9.842e-9
0.440, 3.029e-7
0.500, 1.148e-6
0.560, 3.068e-6
0.620, 5.935e-6
0.680, 8.281e-6
0.740, 9.064e-6
0.800, 7.441e-6
0.860, 4.495e-6
0.920, 2.630e-6
0.980, 1.613e-6
1.040, 1.130e-6
1.100, 1.007e-6
1.040, 2.726e-7
0.980, 3.612e-8
0.920, -2.579e-7
0.860, -7.778e-7
0.800, -1.545e-6
0.740, -2.670e-6
0.680, -4.126e-6
0.620, -5.842e-6
0.560, -7.396e-6
0.500, -8.409e-6
0.440, -6.061e-6
0.380, -3.072e-6
0.320, -1.804e-6
0.260, -1.251e-6
0.200, -1.004e-6
0.260, -3.466e-7
0.320, -1.808e-7
0.380, -1.742e-8
0.440, 2.872e-7
0.500, 1.111e-6
0.560, 2.990e-6
0.620, 5.795e-6
0.680, 8.061e-6
0.740, 8.794e-6
0.800, 7.216e-6
0.860, 4.420e-6
0.920, 2.624e-6
0.980, 1.624e-6
1.040, 1.144e-6
1.100, 1.018e-6
1.040, 2.771e-7
0.980, 4.117e-8
0.920, -2.475e-7
0.860, -7.542e-7
0.800, -1.501e-6
0.740, -2.599e-6
0.680, -4.025e-6
0.620, -5.711e-6
0.560, -7.225e-6
0.500, -8.183e-6
0.440, -5.856e-6
0.380, -3.032e-6
0.320, -1.808e-6
0.260, -1.262e-6
0.200, -1.019e-6
0.260, -3.525e-7
0.320, -1.861e-7
0.380, -2.550e-8
0.440, 2.717e-7
0.500, 1.078e-6
0.560, 2.919e-6
0.620, 5.666e-6
0.680, 7.858e-6
0.740, 8.545e-6
0.800, 7.003e-6
0.860, 4.336e-6
0.920, 2.605e-6
0.980, 1.624e-6
1.040, 1.150e-6
1.100, 1.024e-6
1.040, 2.790e-7
0.980, 4.390e-8
0.920, -2.399e-7
0.860, -7.351e-7
0.800, -1.464e-6
0.740, -2.539e-6
0.680, -3.937e-6
0.620, -5.594e-6
0.560, -7.074e-6
0.500, -7.983e-6
0.440, -5.678e-6
0.380, -2.990e-6
0.320, -1.805e-6
0.260, -1.268e-6
0.200, -1.029e-6
0.260, -3.563e-7
0.320, -1.894e-7
0.380, -3.166e-8
0.440, 2.592e-7
0.500, 1.049e-6
0.560, 2.859e-6
0.620, 5.554e-6
0.680, 7.684e-6
0.740, 8.333e-6
0.800, 6.819e-6
0.860, 4.255e-6
0.920, 2.580e-6
0.980, 1.620e-6
1.040, 1.152e-6
1.100, 1.027e-6
1.040, 2.795e-7
0.980, 4.532e-8
0.920, -2.341e-7
0.860, -7.193e-7
0.800, -1.432e-6
0.740, -2.486e-6
0.680, -3.860e-6
0.620, -5.493e-6
0.560, -6.941e-6
0.500, -7.805e-6
0.440, -5.524e-6
0.380, -2.950e-6
0.320, -1.797e-6
0.260, -1.270e-6
0.200, -1.034e-6
0.260, -3.572e-7
0.320, -1.903e-7
0.380, -3.492e-8
0.440, 2.498e-7
0.500, 1.026e-6
0.560, 2.806e-6
0.620, 5.454e-6
0.680, 7.526e-6
0.740, 8.141e-6
0.800, 6.650e-6
0.860, 4.180e-6
0.920, 2.556e-6
0.980, 1.615e-6
1.040, 1.154e-6
1.100, 1.030e-6
1.040, 2.808e-7
0.980, 4.755e-8
0.920, -2.276e-7
0.860, -7.033e-7
0.800, -1.401e-6
0.740, -2.434e-6
0.680, -3.785e-6
0.620, -5.393e-6
0.560, -6.810e-6
0.500, -7.628e-6
0.440, -5.372e-6
0.380, -2.907e-6
0.320, -1.788e-6
0.260, -1.269e-6
0.200, -1.037e-6
0.260, -3.565e-7
0.320, -1.899e-7
0.380, -3.718e-8
0.440, 2.416e-7
0.500, 1.002e-6
0.560, 2.750e-6
0.620, 5.349e-6
0.680, 7.361e-6
0.740, 7.938e-6
0.800, 6.479e-6
0.860, 4.106e-6
0.920, 2.535e-6
0.980, 1.613e-6
1.040, 1.159e-6
1.100, 1.035e-6
1.040, 2.830e-7
0.980, 5.016e-8
0.920, -2.206e-7
0.860, -6.862e-7
0.800, -1.369e-6
0.740, -2.380e-6
0.680, -3.707e-6
0.620, -5.289e-6
0.560, -6.675e-6
0.500, -7.449e-6
0.440, -5.223e-6
0.380, -2.865e-6
0.320, -1.779e-6
0.260, -1.270e-6
0.200, -1.041e-6
0.260, -3.573e-7
0.320, -1.906e-7
0.380, -4.037e-8
0.440, 2.325e-7
0.500, 9.781e-7
0.560, 2.697e-6
0.620, 5.248e-6
0.680, 7.202e-6
0.740, 7.741e-6
0.800, 6.309e-6
0.860, 4.027e-6
0.920, 2.508e-6
0.980, 1.607e-6
1.040, 1.159e-6
1.100, 1.038e-6
1.040, 2.834e-7
0.980, 5.173e-8
0.920, -2.149e-7
0.860, -6.713e-7
0.800, -1.339e-6
0.740, -2.331e-6
0.680, -3.634e-6
0.620, -5.191e-6
0.560, -6.548e-6
0.500, -7.282e-6
0.440, -5.088e-6
0.380, -2.825e-6
0.320, -1.769e-6
0.260, -1.270e-6
0.200, -1.045e-6
0.260, -3.576e-7
0.320, -1.912e-7
0.380, -4.308e-8
0.440, 2.249e-7
0.500, 9.576e-7
0.560, 2.650e-6
0.620, 5.158e-6
0.680, 7.060e-6
0.740, 7.565e-6
0.800, 6.154e-6
0.860, 3.949e-6
0.920, 2.477e-6
0.980, 1.597e-6
1.040, 1.158e-6
1.100, 1.040e-6
1.040, 2.839e-7
0.980, 5.342e-8
0.920, -2.102e-7
0.860, -6.577e-7
0.800, -1.313e-6
0.740, -2.286e-6
0.680, -3.568e-6
0.620, -5.101e-6
0.560, -6.430e-6
0.500, -7.125e-6
0.440, -4.963e-6
0.380, -2.782e-6
0.320, -1.755e-6
0.260, -1.265e-6
0.200, -1.045e-6
0.260, -3.556e-7
0.320, -1.898e-7
0.380, -4.420e-8
0.440, 2.189e-7
0.500, 9.385e-7
0.560, 2.604e-6
0.620, 5.070e-6
0.680, 6.921e-6
0.740, 7.399e-6
0.800, 6.008e-6
0.860, 3.874e-6
0.920, 2.447e-6
0.980, 1.587e-6
1.040, 1.156e-6
1.100, 1.042e-6
1.040, 2.842e-7
0.980, 5.435e-8
0.920, -2.055e-7
0.860, -6.449e-7
0.800, -1.287e-6
0.740, -2.242e-6
0.680, -3.503e-6
0.620, -5.013e-6
0.560, -6.314e-6
0.500, -6.974e-6
0.440, -4.842e-6
0.380, -2.739e-6
0.320, -1.740e-6
0.260, -1.260e-6
0.200, -1.045e-6
0.260, -3.538e-7
0.320, -1.887e-7
0.380, -4.509e-8
0.440, 2.131e-7
0.500, 9.201e-7
0.560, 2.560e-6
0.620, 4.989e-6
0.680, 6.793e-6
0.740, 7.241e-6
0.800, 5.868e-6
0.860, 3.799e-6
0.920, 2.414e-6
0.980, 1.574e-6
1.040, 1.153e-6
1.100, 1.041e-6
1.040, 2.833e-7
0.980, 5.473e-8
0.920, -2.014e-7
0.860, -6.329e-7
0.800, -1.263e-6
0.740, -2.203e-6
0.680, -3.444e-6
0.620, -4.931e-6
0.560, -6.208e-6
0.500, -6.830e-6
0.440, -4.729e-6
0.380, -2.697e-6
0.320, -1.723e-6
0.260, -1.254e-6
0.200, -1.044e-6
0.260, -3.512e-7
0.320, -1.871e-7
0.380, -4.554e-8
0.440, 2.078e-7
0.500, 9.035e-7
0.560, 2.519e-6
0.620, 4.909e-6
0.680, 6.670e-6
0.740, 7.092e-6
0.800, 5.736e-6
0.860, 3.727e-6
0.920, 2.383e-6
0.980, 1.561e-6
1.040, 1.149e-6
1.100, 1.041e-6
1.040, 2.830e-7
0.980, 5.569e-8
0.920, -1.969e-7
0.860, -6.211e-7
0.800, -1.242e-6
0.740, -2.163e-6
0.680, -3.385e-6
0.620, -4.850e-6
0.560, -6.102e-6
0.500, -6.692e-6
0.440, -4.620e-6
0.380, -2.655e-6
0.320, -1.706e-6
0.260, -1.248e-6
0.200, -1.041e-6
0.260, -3.478e-7
0.320, -1.841e-7
0.380, -4.483e-8
0.440, 2.039e-7
0.500, 8.875e-7
0.560, 2.478e-6
0.620, 4.829e-6
0.680, 6.549e-6
0.740, 6.944e-6
0.800, 5.606e-6
0.860, 3.656e-6
0.920, 2.350e-6
0.980, 1.549e-6
1.040, 1.146e-6
1.100, 1.041e-6
1.040, 2.827e-7
0.980, 5.654e-8
0.920, -1.926e-7
0.860, -6.094e-7
0.800, -1.218e-6
0.740, -2.124e-6
0.680, -3.326e-6
0.620, -4.767e-6
0.560, -5.994e-6
0.500, -6.551e-6
0.440, -4.512e-6
0.380, -2.614e-6
0.320, -1.689e-6
0.260, -1.241e-6
0.200, -1.038e-6
0.260, -3.445e-7
0.320, -1.815e-7
0.380, -4.421e-8
0.440, 1.997e-7
0.500, 8.713e-7
0.560, 2.436e-6
0.620, 4.748e-6
0.680, 6.424e-6
0.740, 6.792e-6
0.800, 5.475e-6
0.860, 3.586e-6
0.920, 2.319e-6
0.980, 1.538e-6
1.040, 1.143e-6
1.100, 1.041e-6
1.040, 2.822e-7
0.980, 5.712e-8
0.920, -1.884e-7
0.860, -5.971e-7
0.800, -1.194e-6
0.740, -2.083e-6
0.680, -3.264e-6
0.620, -4.684e-6
0.560, -5.886e-6
0.500, -6.409e-6
0.440, -4.407e-6
0.380, -2.571e-6
0.320, -1.672e-6
0.260, -1.233e-6
0.200, -1.035e-6
0.260, -3.411e-7
0.320, -1.789e-7
0.380, -4.384e-8
0.440, 1.956e-7
0.500, 8.541e-7
0.560, 2.393e-6
0.620, 4.664e-6
0.680, 6.296e-6
0.740, 6.640e-6
0.800, 5.345e-6
0.860, 3.518e-6
0.920, 2.290e-6
0.980, 1.527e-6
1.040, 1.141e-6
1.100, 1.041e-6
1.040, 2.819e-7
0.980, 5.793e-8
0.920, -1.841e-7
0.860, -5.850e-7
0.800, -1.170e-6
0.740, -2.042e-6
0.680, -3.205e-6
0.620, -4.600e-6
0.560, -5.777e-6
0.500, -6.265e-6
0.440, -4.302e-6
0.380, -2.531e-6
0.320, -1.655e-6
0.260, -1.227e-6
0.200, -1.033e-6
0.260, -3.379e-7
0.320, -1.765e-7
0.380, -4.348e-8
0.440, 1.913e-7
0.500, 8.373e-7
0.560, 2.350e-6
0.620, 4.580e-6
0.680, 6.168e-6
0.740, 6.490e-6
0.800, 5.217e-6
0.860, 3.451e-6
0.920, 2.259e-6
0.980, 1.516e-6
1.040, 1.138e-6
1.100, 1.042e-6
1.040, 2.814e-7
0.980, 5.847e-8
0.920, -1.799e-7
0.860, -5.727e-7
0.800, -1.147e-6
0.740, -2.002e-6
0.680, -3.144e-6
0.620, -4.518e-6
0.560, -5.672e-6
0.500, -6.129e-6
0.440, -4.204e-6
0.380, -2.493e-6
0.320, -1.641e-6
0.260, -1.222e-6
0.200, -1.033e-6
0.260, -3.362e-7
0.320, -1.749e-7
0.380, -4.346e-8
0.440, 1.871e-7
0.500, 8.222e-7
0.560, 2.312e-6
0.620, 4.504e-6
0.680, 6.051e-6
0.740, 6.348e-6
0.800, 5.097e-6
0.860, 3.385e-6
0.920, 2.229e-6
0.980, 1.503e-6
1.040, 1.134e-6
1.100, 1.041e-6
1.040, 2.806e-7
0.980, 5.869e-8
0.920, -1.760e-7
0.860, -5.619e-7
0.800, -1.125e-6
0.740, -1.965e-6
0.680, -3.088e-6
0.620, -4.440e-6
0.560, -5.570e-6
0.500, -5.999e-6
0.440, -4.111e-6
0.380, -2.456e-6
0.320, -1.625e-6
0.260, -1.215e-6
0.200, -1.030e-6
0.260, -3.326e-7
0.320, -1.721e-7
0.380, -4.251e-8
0.440, 1.835e-7
0.500, 8.067e-7
0.560, 2.271e-6
0.620, 4.426e-6
0.680, 5.933e-6
0.740, 6.210e-6
0.800, 4.985e-6
0.860, 3.325e-6
0.920, 2.200e-6
0.980, 1.491e-6
1.040, 1.130e-6
1.100, 1.041e-6
1.040, 2.803e-7
0.980, 5.951e-8
0.920, -1.719e-7
0.860, -5.504e-7
0.800, -1.102e-6
0.740, -1.927e-6
0.680, -3.031e-6
0.620, -4.364e-6
0.560, -5.469e-6
0.500, -5.870e-6
0.440, -4.017e-6
0.380, -2.417e-6
0.320, -1.609e-6
0.260, -1.207e-6
0.200, -1.027e-6
0.260, -3.290e-7
0.320, -1.692e-7
0.380, -4.160e-8
0.440, 1.800e-7
0.500, 7.911e-7
0.560, 2.232e-6
0.620, 4.349e-6
0.680, 5.816e-6
0.740, 6.070e-6
0.800, 4.869e-6
0.860, 3.261e-6
0.920, 2.171e-6
0.980, 1.479e-6
1.040, 1.127e-6
1.100, 1.041e-6
1.040, 2.798e-7
0.980, 6.023e-8
0.920, -1.682e-7
0.860, -5.393e-7
0.800, -1.081e-6
0.740, -1.889e-6
0.680, -2.975e-6
0.620, -4.284e-6
0.560, -5.367e-6
0.500, -5.738e-6
0.440, -3.924e-6
0.380, -2.377e-6
0.320, -1.591e-6
0.260, -1.199e-6
0.200, -1.023e-6
0.260, -3.254e-7
0.320, -1.663e-7
0.380, -4.037e-8
0.440, 1.769e-7
0.500, 7.765e-7
0.560, 2.192e-6
0.620, 4.272e-6
0.680, 5.699e-6
0.740, 5.932e-6
0.800, 4.753e-6
0.860, 3.196e-6
0.920, 2.140e-6
0.980, 1.467e-6
1.040, 1.123e-6
1.100, 1.041e-6
1.040, 2.794e-7
0.980, 6.081e-8
0.920, -1.640e-7
0.860, -5.276e-7
0.800, -1.058e-6
0.740, -1.851e-6
0.680, -2.918e-6
0.620, -4.204e-6
0.560, -5.263e-6
0.500, -5.607e-6
0.440, -3.831e-6
0.380, -2.338e-6
0.320, -1.574e-6
0.260, -1.191e-6
0.200, -1.020e-6
0.260, -3.218e-7
0.320, -1.635e-7
0.380, -3.934e-8
0.440, 1.733e-7
0.500, 7.604e-7
0.560, 2.152e-6
0.620, 4.193e-6
0.680, 5.580e-6
0.740, 5.793e-6
0.800, 4.637e-6
0.860, 3.134e-6
0.920, 2.109e-6
0.980, 1.454e-6
1.040, 1.119e-6
1.100, 1.040e-6
1.040, 2.786e-7
0.980, 6.126e-8
0.920, -1.607e-7
0.860, -5.168e-7
0.800, -1.036e-6
0.740, -1.814e-6
0.680, -2.861e-6
0.620, -4.125e-6
0.560, -5.161e-6
0.500, -5.475e-6
0.440, -3.741e-6
0.380, -2.300e-6
0.320, -1.557e-6
0.260, -1.183e-6
0.200, -1.017e-6
0.260, -3.183e-7
0.320, -1.612e-7
0.380, -3.839e-8
0.440, 1.702e-7
0.500, 7.465e-7
0.560, 2.112e-6
0.620, 4.115e-6
0.680, 5.462e-6
0.740, 5.656e-6
0.800, 4.525e-6
0.860, 3.072e-6
0.920, 2.079e-6
0.980, 1.441e-6
1.040, 1.115e-6
1.100, 1.039e-6
1.040, 2.778e-7
0.980, 6.156e-8
0.920, -1.570e-7
0.860, -5.061e-7
0.800, -1.014e-6
0.740, -1.777e-6
0.680, -2.806e-6
0.620, -4.047e-6
0.560, -5.060e-6
0.500, -5.349e-6
0.440, -3.655e-6
0.380, -2.262e-6
0.320, -1.540e-6
0.260, -1.176e-6
0.200, -1.015e-6
0.260, -3.149e-7
0.320, -1.581e-7
0.380, -3.742e-8
0.440, 1.672e-7
0.500, 7.318e-7
0.560, 2.073e-6
0.620, 4.038e-6
0.680, 5.346e-6
0.740, 5.523e-6
0.800, 4.417e-6
0.860, 3.011e-6
0.920, 2.049e-6
0.980, 1.428e-6
1.040, 1.110e-6
1.100, 1.039e-6
1.040, 2.770e-7
0.980, 6.184e-8
0.920, -1.532e-7
0.860, -4.952e-7
0.800, -9.927e-7
0.740, -1.739e-6
0.680, -2.749e-6
0.620, -3.965e-6
0.560, -4.958e-6
0.500, -5.220e-6
0.440, -3.568e-6
0.380, -2.225e-6
0.320, -1.523e-6
0.260, -1.167e-6
0.200, -1.011e-6
0.260, -3.114e-7
0.320, -1.550e-7
0.380, -3.616e-8
0.440, 1.642e-7
0.500, 7.168e-7
0.560, 2.033e-6
0.620, 3.958e-6
0.680, 5.227e-6
0.740, 5.384e-6
0.800, 4.307e-6
0.860, 2.951e-6
0.920, 2.021e-6
0.980, 1.416e-6
1.040, 1.107e-6
1.100, 1.039e-6
1.040, 2.770e-7
0.980, 6.263e-8
0.920, -1.494e-7
0.860, -4.836e-7
0.800, -9.699e-7
0.740, -1.700e-6
0.680, -2.690e-6
0.620, -3.883e-6
0.560, -4.854e-6
0.500, -5.090e-6
0.440, -3.481e-6
0.380, -2.187e-6
0.320, -1.506e-6
0.260, -1.159e-6
0.200, -1.007e-6
0.260, -3.079e-7
0.320, -1.524e-7
0.380, -3.521e-8
0.440, 1.607e-7
0.500, 7.006e-7
0.560, 1.992e-6
0.620, 3.877e-6
0.680, 5.108e-6
0.740, 5.248e-6
0.800, 4.198e-6
0.860, 2.891e-6
0.920, 1.991e-6
0.980, 1.404e-6
1.040, 1.104e-6
1.100, 1.039e-6
1.040, 2.765e-7
0.980, 6.341e-8
0.920, -1.457e-7
0.860, -4.724e-7
0.800, -9.482e-7
0.740, -1.662e-6
0.680, -2.634e-6
0.620, -3.803e-6
0.560, -4.751e-6
0.500, -4.964e-6
0.440, -3.398e-6
0.380, -2.150e-6
0.320, -1.490e-6
0.260, -1.152e-6
0.200, -1.005e-6
0.260, -3.046e-7
0.320, -1.501e-7
0.380, -3.437e-8
0.440, 1.576e-7
0.500, 6.849e-7
0.560, 1.953e-6
0.620, 3.799e-6
0.680, 4.996e-6
0.740, 5.116e-6
0.800, 4.092e-6
0.860, 2.829e-6
0.920, 1.959e-6
0.980, 1.389e-6
1.040, 1.098e-6
1.100, 1.037e-6
1.040, 2.751e-7
0.980, 6.352e-8
0.920, -1.420e-7
0.860, -4.622e-7
0.800, -9.268e-7
0.740, -1.625e-6
0.680, -2.578e-6
0.620, -3.724e-6
0.560, -4.649e-6
0.500, -4.838e-6
0.440, -3.314e-6
0.380, -2.111e-6
0.320, -1.472e-6
0.260, -1.143e-6
0.200, -1.001e-6
0.260, -3.005e-7
0.320, -1.469e-7
0.380, -3.287e-8
0.440, 1.548e-7
0.500, 6.714e-7
0.560, 1.913e-6
0.620, 3.720e-6
0.680, 4.878e-6
0.740, 4.984e-6
0.800, 3.985e-6
0.860, 2.770e-6
0.920, 1.930e-6
0.980, 1.378e-6
1.040, 1.095e-6
1.100, 1.038e-6
1.040, 2.753e-7
0.980, 6.417e-8
0.920, -1.378e-7
0.860, -4.506e-7
0.800, -9.043e-7
0.740, -1.586e-6
0.680, -2.519e-6
0.620, -3.640e-6
0.560, -4.544e-6
0.500, -4.706e-6
0.440, -3.228e-6
0.380, -2.073e-6
0.320, -1.454e-6
0.260, -1.135e-6
0.200, -9.968e-7
0.260, -2.967e-7
0.320, -1.436e-7
0.380, -3.139e-8
0.440, 1.519e-7
0.500, 6.558e-7
0.560, 1.871e-6
0.620, 3.633e-6
0.680, 4.750e-6
0.740, 4.842e-6
0.800, 3.878e-6
0.860, 2.713e-6
0.920, 1.903e-6
0.980, 1.367e-6
1.040, 1.093e-6
1.100, 1.039e-6
1.040, 2.755e-7
0.980, 6.531e-8
0.920, -1.335e-7
0.860, -4.386e-7
0.800, -8.803e-7
0.740, -1.545e-6
0.680, -2.457e-6
0.620, -3.553e-6
0.560, -4.434e-6
0.500, -4.574e-6
0.440, -3.143e-6
0.380, -2.036e-6
0.320, -1.438e-6
0.260, -1.127e-6
0.200, -9.942e-7
0.260, -2.937e-7
0.320, -1.412e-7
0.380, -3.071e-8
0.440, 1.483e-7
0.500, 6.394e-7
0.560, 1.828e-6
0.620, 3.546e-6
0.680, 4.623e-6
0.740, 4.701e-6
0.800, 3.768e-6
0.860, 2.654e-6
0.920, 1.875e-6
0.980, 1.355e-6
1.040, 1.088e-6
1.100, 1.039e-6
1.040, 2.751e-7
0.980, 6.588e-8
0.920, -1.296e-7
0.860, -4.268e-7
0.800, -8.561e-7
0.740, -1.505e-6
0.680, -2.396e-6
0.620, -3.468e-6
0.560, -4.329e-6
0.500, -4.444e-6
0.440, -3.061e-6
0.380, -1.999e-6
0.320, -1.421e-6
0.260, -1.120e-6
0.200, -9.917e-7
0.260, -2.908e-7
0.320, -1.388e-7
0.380, -2.989e-8
0.440, 1.450e-7
0.500, 6.243e-7
0.560, 1.787e-6
0.620, 3.465e-6
0.680, 4.503e-6
0.740, 4.566e-6
0.800, 3.663e-6
0.860, 2.593e-6
0.920, 1.844e-6
0.980, 1.341e-6
1.040, 1.083e-6
1.100, 1.037e-6
1.040, 2.745e-7
0.980, 6.633e-8
0.920, -1.259e-7
0.860, -4.160e-7
0.800, -8.348e-7
0.740, -1.468e-6
0.680, -2.339e-6
0.620, -3.386e-6
0.560, -4.225e-6
0.500, -4.322e-6
0.440, -2.982e-6
0.380, -1.962e-6
0.320, -1.403e-6
0.260, -1.111e-6
0.200, -9.886e-7
0.260, -2.873e-7
0.320, -1.358e-7
0.380, -2.858e-8
0.440, 1.425e-7
0.500, 6.098e-7
0.560, 1.747e-6
0.620, 3.384e-6
0.680, 4.385e-6
0.740, 4.435e-6
0.800, 3.563e-6
0.860, 2.536e-6
0.920, 1.814e-6
0.980, 1.327e-6
1.040, 1.078e-6
1.100, 1.036e-6
1.040, 2.736e-7
0.980, 6.648e-8
0.920, -1.224e-7
0.860, -4.057e-7
0.800, -8.134e-7
0.740, -1.430e-6
0.680, -2.281e-6
0.620, -3.304e-6
0.560, -4.121e-6
0.500, -4.199e-6
0.440, -2.904e-6
0.380, -1.926e-6
0.320, -1.386e-6
0.260, -1.103e-6
0.200, -9.849e-7
0.260, -2.839e-7
0.320, -1.331e-7
0.380, -2.745e-8
0.440, 1.395e-7
0.500, 5.948e-7
0.560, 1.706e-6
0.620, 3.303e-6
0.680, 4.267e-6
0.740, 4.304e-6
0.800, 3.463e-6
0.860, 2.479e-6
0.920, 1.785e-6
0.980, 1.314e-6
1.040, 1.073e-6
1.100, 1.035e-6
1.040, 2.731e-7
0.980, 6.689e-8
0.920, -1.188e-7
0.860, -3.951e-7
0.800, -7.920e-7
0.740, -1.393e-6
0.680, -2.225e-6
0.620, -3.221e-6
0.560, -4.017e-6
0.500, -4.078e-6
0.440, -2.828e-6
0.380, -1.889e-6
0.320, -1.369e-6
0.260, -1.095e-6
0.202, -9.962e-7