File: Data/2022-03-23 MQ HCF/CV-Carbon-CoHCF-1.txt
Mar. 22, 2022   16:10:38
Cyclic Voltammetry
File: d:\mq\20220322-pba stability\cv-carbon-cohcf-1.txt
Data Source:  Experiment
Instrument Model:  CHI840D
Header:
Note:

Init E (V) = 0.2
High E (V) = 1.2
Low E (V) = 0.2
Init P/N = P
Scan Rate (V/s) = 0.05
Segment = 100
Sample Interval (V) = 0.001
Quiet Time (sec) = 2
Sensitivity (A/V) = 1e-5

Segment 1:

Segment 2:

Segment 3:

Segment 4:

Segment 5:

Segment 6:

Segment 7:

Segment 8:

Segment 9:

Segment 10:

Segment 11:

Segment 12:

Segment 13:

Segment 14:

Segment 15:

Segment 16:

Segment 17:

Segment 18:

Segment 19:

Segment 20:

Segment 21:

Segment 22:

Segment 23:

Segment 24:

Segment 25:

Segment 26:

Segment 27:

Segment 28:

Segment 29:

Segment 30:

Segment 31:

Segment 32:

Segment 33:

Segment 34:

Segment 35:

Segment 36:

Segment 37:

Segment 38:

Segment 39:

Segment 40:

Segment 41:

Segment 42:

Segment 43:

Segment 44:

Segment 45:

Segment 46:

Segment 47:

Segment 48:

Segment 49:

Segment 50:

Segment 51:

Segment 52:

Segment 53:

Segment 54:

Segment 55:

Segment 56:

Segment 57:

Segment 58:

Segment 59:

Segment 60:

Segment 61:

Segment 62:

Segment 63:

Segment 64:

Segment 65:

Segment 66:

Segment 67:

Segment 68:

Segment 69:

Segment 70:

Segment 71:

Segment 72:

Segment 73:

Segment 74:

Segment 75:

Segment 76:

Segment 77:

Segment 78:

Segment 79:

Segment 80:

Segment 81:

Segment 82:

Segment 83:

Segment 84:

Segment 85:

Segment 86:

Segment 87:

Segment 88:

Segment 89:

Segment 90:

Segment 91:

Segment 92:

Segment 93:

Segment 94:

Segment 95:

Segment 96:

Segment 97:

Segment 98:

Segment 99:

Segment 100:

Potential/V, Current/A

0.200, -3.634e-6
0.267, -2.426e-6
0.334, -1.782e-6
0.401, -1.183e-6
0.468, -3.862e-7
0.535, 6.879e-7
0.602, 1.945e-6
0.669, 3.258e-6
0.736, 4.419e-6
0.803, 5.232e-6
0.870, 5.649e-6
0.937, 5.713e-6
1.004, 5.632e-6
1.071, 5.722e-6
1.138, 6.159e-6
1.195, 6.515e-6
1.128, 2.826e-6
1.061, 1.022e-6
0.994, -7.717e-8
0.927, -7.768e-7
0.860, -1.214e-6
0.793, -1.540e-6
0.726, -1.980e-6
0.659, -2.803e-6
0.592, -3.813e-6
0.525, -4.558e-6
0.458, -4.734e-6
0.391, -4.343e-6
0.324, -3.796e-6
0.257, -3.350e-6
0.210, -2.735e-6
0.277, -1.984e-6
0.344, -1.503e-6
0.411, -9.645e-7
0.478, -1.579e-7
0.545, 9.641e-7
0.612, 2.288e-6
0.679, 3.676e-6
0.746, 4.896e-6
0.813, 5.727e-6
0.880, 6.105e-6
0.947, 6.051e-6
1.014, 5.785e-6
1.081, 5.697e-6
1.148, 5.997e-6
1.185, 5.345e-6
1.118, 2.241e-6
1.051, 6.377e-7
0.984, -3.565e-7
0.917, -9.994e-7
0.850, -1.407e-6
0.783, -1.743e-6
0.716, -2.236e-6
0.649, -3.145e-6
0.582, -4.166e-6
0.515, -4.869e-6
0.448, -4.948e-6
0.381, -4.489e-6
0.314, -3.928e-6
0.247, -3.482e-6
0.220, -2.719e-6
0.287, -2.013e-6
0.354, -1.516e-6
0.421, -9.363e-7
0.488, -6.904e-8
0.555, 1.108e-6
0.622, 2.484e-6
0.689, 3.909e-6
0.756, 5.125e-6
0.823, 5.929e-6
0.890, 6.245e-6
0.957, 6.102e-6
1.024, 5.760e-6
1.091, 5.634e-6
1.158, 5.924e-6
1.175, 4.519e-6
1.108, 1.823e-6
1.041, 3.724e-7
0.974, -5.423e-7
0.907, -1.143e-6
0.840, -1.535e-6
0.773, -1.888e-6
0.706, -2.442e-6
0.639, -3.424e-6
0.572, -4.435e-6
0.505, -5.085e-6
0.438, -5.070e-6
0.371, -4.564e-6
0.304, -4.003e-6
0.237, -3.565e-6
0.230, -2.681e-6
0.297, -2.010e-6
0.364, -1.499e-6
0.431, -8.787e-7
0.498, 4.518e-8
0.565, 1.272e-6
0.632, 2.687e-6
0.699, 4.128e-6
0.766, 5.317e-6
0.833, 6.072e-6
0.900, 6.325e-6
0.967, 6.113e-6
1.034, 5.732e-6
1.101, 5.599e-6
1.168, 5.911e-6
1.165, 3.865e-6
1.098, 1.493e-6
1.031, 1.740e-7
0.964, -6.753e-7
0.897, -1.241e-6
0.830, -1.625e-6
0.763, -2.001e-6
0.696, -2.624e-6
0.629, -3.660e-6
0.562, -4.653e-6
0.495, -5.237e-6
0.428, -5.136e-6
0.361, -4.599e-6
0.294, -4.046e-6
0.227, -3.620e-6
0.240, -2.629e-6
0.307, -1.987e-6
0.374, -1.462e-6
0.441, -7.977e-7
0.508, 1.792e-7
0.575, 1.448e-6
0.642, 2.891e-6
0.709, 4.326e-6
0.776, 5.474e-6
0.843, 6.167e-6
0.910, 6.357e-6
0.977, 6.097e-6
1.044, 5.704e-6
1.111, 5.583e-6
1.178, 5.944e-6
1.155, 3.330e-6
1.088, 1.226e-6
1.021, 1.921e-8
0.954, -7.730e-7
0.887, -1.308e-6
0.820, -1.691e-6
0.753, -2.096e-6
0.686, -2.793e-6
0.619, -3.867e-6
0.552, -4.838e-6
0.485, -5.350e-6
0.418, -5.172e-6
0.351, -4.617e-6
0.284, -4.075e-6
0.217, -3.661e-6
0.250, -2.573e-6
0.317, -1.952e-6
0.384, -1.409e-6
0.451, -7.007e-7
0.518, 3.274e-7
0.585, 1.635e-6
0.652, 3.096e-6
0.719, 4.511e-6
0.786, 5.601e-6
0.853, 6.231e-6
0.920, 6.360e-6
0.987, 6.068e-6
1.054, 5.679e-6
1.121, 5.577e-6
1.188, 6.018e-6
1.145, 2.884e-6
1.078, 1.005e-6
1.011, -1.077e-7
0.944, -8.503e-7
0.877, -1.360e-6
0.810, -1.746e-6
0.743, -2.187e-6
0.676, -2.961e-6
0.609, -4.060e-6
0.542, -5.002e-6
0.475, -5.436e-6
0.408, -5.189e-6
0.341, -4.621e-6
0.274, -4.093e-6
0.207, -3.694e-6
0.260, -2.513e-6
0.327, -1.907e-6
0.394, -1.345e-6
0.461, -5.901e-7
0.528, 4.861e-7
0.595, 1.825e-6
0.662, 3.297e-6
0.729, 4.681e-6
0.796, 5.707e-6
0.863, 6.269e-6
0.930, 6.342e-6
0.997, 6.023e-6
1.064, 5.647e-6
1.131, 5.570e-6
1.198, 6.122e-6
1.135, 2.497e-6
1.068, 8.080e-7
1.001, -2.197e-7
0.934, -9.185e-7
0.867, -1.405e-6
0.800, -1.797e-6
0.733, -2.278e-6
0.666, -3.124e-6
0.599, -4.228e-6
0.532, -5.130e-6
0.465, -5.474e-6
0.398, -5.163e-6
0.331, -4.593e-6
0.264, -4.085e-6
0.203, -3.513e-6
0.270, -2.439e-6
0.337, -1.849e-6
0.404, -1.267e-6
0.471, -4.691e-7
0.538, 6.492e-7
0.605, 2.013e-6
0.672, 3.488e-6
0.739, 4.830e-6
0.806, 5.790e-6
0.873, 6.284e-6
0.940, 6.304e-6
1.007, 5.969e-6
1.074, 5.613e-6
1.141, 5.567e-6
1.192, 5.307e-6
1.125, 2.163e-6
1.058, 6.352e-7
0.991, -3.181e-7
0.924, -9.778e-7
0.857, -1.446e-6
0.790, -1.847e-6
0.723, -2.376e-6
0.656, -3.292e-6
0.589, -4.394e-6
0.522, -5.251e-6
0.455, -5.506e-6
0.388, -5.142e-6
0.321, -4.575e-6
0.254, -4.086e-6
0.213, -3.299e-6
0.280, -2.373e-6
0.347, -1.790e-6
0.414, -1.185e-6
0.481, -3.386e-7
0.548, 8.229e-7
0.615, 2.210e-6
0.682, 3.681e-6
0.749, 4.976e-6
0.816, 5.867e-6
0.883, 6.296e-6
0.950, 6.266e-6
1.017, 5.919e-6
1.084, 5.588e-6
1.151, 5.579e-6
1.182, 4.583e-6
1.115, 1.878e-6
1.048, 4.842e-7
0.981, -4.053e-7
0.914, -1.031e-6
0.847, -1.484e-6
0.780, -1.899e-6
0.713, -2.482e-6
0.646, -3.457e-6
0.579, -4.545e-6
0.512, -5.349e-6
0.445, -5.510e-6
0.378, -5.100e-6
0.311, -4.541e-6
0.244, -4.071e-6
0.223, -3.135e-6
0.290, -2.297e-6
0.357, -1.720e-6
0.424, -1.090e-6
0.491, -1.995e-7
0.558, 9.976e-7
0.625, 2.404e-6
0.692, 3.861e-6
0.759, 5.099e-6
0.826, 5.924e-6
0.893, 6.286e-6
0.960, 6.214e-6
1.027, 5.864e-6
1.094, 5.561e-6
1.161, 5.602e-6
1.172, 3.997e-6
1.105, 1.625e-6
1.038, 3.481e-7
0.971, -4.849e-7
0.904, -1.079e-6
0.837, -1.522e-6
0.770, -1.955e-6
0.703, -2.595e-6
0.636, -3.621e-6
0.569, -4.692e-6
0.502, -5.434e-6
0.435, -5.504e-6
0.368, -5.058e-6
0.301, -4.510e-6
0.234, -4.059e-6
0.233, -2.999e-6
0.300, -2.224e-6
0.367, -1.647e-6
0.434, -9.880e-7
0.501, -5.201e-8
0.568, 1.178e-6
0.635, 2.600e-6
0.702, 4.039e-6
0.769, 5.217e-6
0.836, 5.973e-6
0.903, 6.275e-6
0.970, 6.163e-6
1.037, 5.813e-6
1.104, 5.539e-6
1.171, 5.647e-6
1.162, 3.502e-6
1.095, 1.398e-6
1.028, 2.244e-7
0.961, -5.595e-7
0.894, -1.126e-6
0.827, -1.562e-6
0.760, -2.018e-6
0.693, -2.718e-6
0.626, -3.781e-6
0.559, -4.831e-6
0.492, -5.496e-6
0.425, -5.478e-6
0.358, -5.005e-6
0.291, -4.470e-6
0.224, -4.040e-6
0.243, -2.873e-6
0.310, -2.146e-6
0.377, -1.567e-6
0.444, -8.777e-7
0.511, 1.000e-7
0.578, 1.360e-6
0.645, 2.792e-6
0.712, 4.204e-6
0.779, 5.320e-6
0.846, 6.009e-6
0.913, 6.253e-6
0.980, 6.109e-6
1.047, 5.762e-6
1.114, 5.520e-6
1.181, 5.718e-6
1.152, 3.079e-6
1.085, 1.196e-6
1.018, 1.096e-7
0.951, -6.299e-7
0.884, -1.171e-6
0.817, -1.607e-6
0.750, -2.088e-6
0.683, -2.850e-6
0.616, -3.940e-6
0.549, -4.962e-6
0.482, -5.546e-6
0.415, -5.445e-6
0.348, -4.953e-6
0.281, -4.433e-6
0.214, -4.021e-6
0.253, -2.759e-6
0.320, -2.068e-6
0.387, -1.483e-6
0.454, -7.598e-7
0.521, 2.588e-7
0.588, 1.546e-6
0.655, 2.982e-6
0.722, 4.360e-6
0.789, 5.410e-6
0.856, 6.032e-6
0.923, 6.222e-6
0.990, 6.049e-6
1.057, 5.710e-6
1.124, 5.502e-6
1.191, 5.811e-6
1.142, 2.701e-6
1.075, 1.010e-6
1.008, 2.273e-9
0.941, -6.963e-7
0.874, -1.215e-6
0.807, -1.651e-6
0.740, -2.163e-6
0.673, -2.985e-6
0.606, -4.087e-6
0.539, -5.068e-6
0.472, -5.559e-6
0.405, -5.383e-6
0.338, -4.879e-6
0.271, -4.380e-6
0.204, -3.988e-6
0.263, -2.641e-6
0.330, -1.982e-6
0.397, -1.390e-6
0.464, -6.356e-7
0.531, 4.175e-7
0.598, 1.726e-6
0.665, 3.159e-6
0.732, 4.491e-6
0.799, 5.475e-6
0.866, 6.030e-6
0.933, 6.170e-6
1.000, 5.979e-6
1.067, 5.654e-6
1.134, 5.483e-6
1.199, 5.802e-6
1.132, 2.367e-6
1.065, 8.408e-7
0.998, -9.663e-8
0.931, -7.564e-7
0.864, -1.255e-6
0.797, -1.697e-6
0.730, -2.244e-6
0.663, -3.125e-6
0.596, -4.230e-6
0.529, -5.167e-6
0.462, -5.563e-6
0.395, -5.323e-6
0.328, -4.815e-6
0.261, -4.335e-6
0.206, -3.661e-6
0.273, -2.536e-6
0.340, -1.900e-6
0.407, -1.297e-6
0.474, -5.065e-7
0.541, 5.826e-7
0.608, 1.909e-6
0.675, 3.337e-6
0.742, 4.621e-6
0.809, 5.536e-6
0.876, 6.028e-6
0.943, 6.123e-6
1.010, 5.915e-6
1.077, 5.608e-6
1.144, 5.475e-6
1.189, 4.899e-6
1.122, 2.074e-6
1.055, 6.895e-7
0.988, -1.835e-7
0.921, -8.100e-7
0.854, -1.291e-6
0.787, -1.743e-6
0.720, -2.331e-6
0.653, -3.267e-6
0.586, -4.367e-6
0.519, -5.252e-6
0.452, -5.555e-6
0.385, -5.260e-6
0.318, -4.753e-6
0.251, -4.293e-6
0.216, -3.414e-6
0.283, -2.433e-6
0.350, -1.817e-6
0.417, -1.201e-6
0.484, -3.707e-7
0.551, 7.541e-7
0.618, 2.097e-6
0.685, 3.513e-6
0.752, 4.746e-6
0.819, 5.593e-6
0.886, 6.025e-6
0.953, 6.078e-6
1.020, 5.858e-6
1.087, 5.569e-6
1.154, 5.482e-6
1.179, 4.268e-6
1.112, 1.821e-6
1.045, 5.547e-7
0.978, -2.633e-7
0.911, -8.585e-7
0.844, -1.329e-6
0.777, -1.794e-6
0.710, -2.429e-6
0.643, -3.416e-6
0.576, -4.505e-6
0.509, -5.338e-6
0.442, -5.550e-6
0.375, -5.211e-6
0.308, -4.709e-6
0.241, -4.267e-6
0.226, -3.231e-6
0.293, -2.345e-6
0.360, -1.739e-6
0.427, -1.101e-6
0.494, -2.283e-7
0.561, 9.325e-7
0.628, 2.294e-6
0.695, 3.695e-6
0.762, 4.872e-6
0.829, 5.654e-6
0.896, 6.027e-6
0.963, 6.040e-6
1.030, 5.809e-6
1.097, 5.538e-6
1.164, 5.507e-6
1.169, 3.752e-6
1.102, 1.596e-6
1.035, 4.310e-7
0.968, -3.383e-7
0.901, -9.082e-7
0.834, -1.369e-6
0.767, -1.851e-6
0.700, -2.538e-6
0.633, -3.565e-6
0.566, -4.640e-6
0.499, -5.408e-6
0.432, -5.531e-6
0.365, -5.156e-6
0.298, -4.660e-6
0.231, -4.237e-6
0.236, -3.070e-6
0.303, -2.255e-6
0.370, -1.654e-6
0.437, -9.919e-7
0.504, -7.965e-8
0.571, 1.111e-6
0.638, 2.484e-6
0.705, 3.862e-6
0.772, 4.979e-6
0.839, 5.696e-6
0.906, 6.014e-6
0.973, 5.994e-6
1.040, 5.757e-6
1.107, 5.508e-6
1.174, 5.548e-6
1.159, 3.307e-6
1.092, 1.390e-6
1.025, 3.184e-7
0.958, -4.078e-7
0.891, -9.536e-7
0.824, -1.410e-6
0.757, -1.913e-6
0.690, -2.654e-6
0.623, -3.711e-6
0.556, -4.765e-6
0.489, -5.458e-6
0.422, -5.495e-6
0.355, -5.092e-6
0.288, -4.607e-6
0.221, -4.202e-6
0.246, -2.925e-6
0.313, -2.164e-6
0.380, -1.566e-6
0.447, -8.792e-7
0.514, 7.322e-8
0.581, 1.291e-6
0.648, 2.672e-6
0.715, 4.020e-6
0.782, 5.073e-6
0.849, 5.729e-6
0.916, 5.997e-6
0.983, 5.945e-6
1.050, 5.706e-6
1.117, 5.481e-6
1.184, 5.614e-6
1.149, 2.921e-6
1.082, 1.206e-6
1.015, 2.116e-7
0.948, -4.742e-7
0.881, -9.993e-7
0.814, -1.457e-6
0.747, -1.985e-6
0.680, -2.780e-6
0.613, -3.860e-6
0.546, -4.889e-6
0.479, -5.500e-6
0.412, -5.458e-6
0.345, -5.034e-6
0.278, -4.561e-6
0.211, -4.174e-6
0.256, -2.796e-6
0.323, -2.077e-6
0.390, -1.477e-6
0.457, -7.589e-7
0.524, 2.309e-7
0.591, 1.475e-6
0.658, 2.859e-6
0.725, 4.173e-6
0.792, 5.164e-6
0.859, 5.759e-6
0.926, 5.979e-6
0.993, 5.900e-6
1.060, 5.661e-6
1.127, 5.463e-6
1.194, 5.712e-6
1.139, 2.586e-6
1.072, 1.038e-6
1.005, 1.131e-7
0.938, -5.379e-7
0.871, -1.045e-6
0.804, -1.505e-6
0.737, -2.063e-6
0.670, -2.913e-6
0.603, -4.005e-6
0.536, -5.000e-6
0.469, -5.524e-6
0.402, -5.408e-6
0.335, -4.969e-6
0.268, -4.509e-6
0.201, -4.140e-6
0.266, -2.671e-6
0.333, -1.986e-6
0.400, -1.382e-6
0.467, -6.342e-7
0.534, 3.903e-7
0.601, 1.658e-6
0.668, 3.039e-6
0.735, 4.310e-6
0.802, 5.238e-6
0.869, 5.774e-6
0.936, 5.950e-6
1.003, 5.850e-6
1.070, 5.616e-6
1.137, 5.447e-6
1.196, 5.352e-6
1.129, 2.289e-6
1.062, 8.854e-7
0.995, 2.165e-8
0.928, -5.977e-7
0.861, -1.090e-6
0.794, -1.556e-6
0.727, -2.149e-6
0.660, -3.052e-6
0.593, -4.152e-6
0.526, -5.107e-6
0.459, -5.542e-6
0.392, -5.365e-6
0.325, -4.917e-6
0.258, -4.472e-6
0.209, -3.712e-6
0.276, -2.563e-6
0.343, -1.903e-6
0.410, -1.288e-6
0.477, -5.054e-7
0.544, 5.567e-7
0.611, 1.846e-6
0.678, 3.224e-6
0.745, 4.449e-6
0.812, 5.316e-6
0.879, 5.796e-6
0.946, 5.930e-6
1.013, 5.809e-6
1.080, 5.579e-6
1.147, 5.445e-6
1.186, 4.622e-6
1.119, 2.025e-6
1.052, 7.446e-7
0.985, -6.516e-8
0.918, -6.569e-7
0.851, -1.134e-6
0.784, -1.614e-6
0.717, -2.243e-6
0.650, -3.197e-6
0.583, -4.292e-6
0.516, -5.197e-6
0.449, -5.537e-6
0.382, -5.303e-6
0.315, -4.853e-6
0.248, -4.423e-6
0.219, -3.459e-6
0.286, -2.451e-6
0.353, -1.812e-6
0.420, -1.188e-6
0.487, -3.692e-7
0.554, 7.253e-7
0.621, 2.028e-6
0.688, 3.393e-6
0.755, 4.567e-6
0.822, 5.374e-6
0.889, 5.798e-6
0.956, 5.896e-6
1.023, 5.760e-6
1.090, 5.539e-6
1.157, 5.449e-6
1.176, 4.053e-6
1.109, 1.790e-6
1.042, 6.139e-7
0.975, -1.468e-7
0.908, -7.113e-7
0.841, -1.183e-6
0.774, -1.675e-6
0.707, -2.347e-6
0.640, -3.340e-6
0.573, -4.426e-6
0.506, -5.274e-6
0.439, -5.521e-6
0.372, -5.242e-6
0.305, -4.792e-6
0.238, -4.381e-6
0.229, -3.258e-6
0.296, -2.347e-6
0.363, -1.725e-6
0.430, -1.084e-6
0.497, -2.303e-7
0.564, 8.963e-7
0.631, 2.213e-6
0.698, 3.562e-6
0.765, 4.684e-6
0.832, 5.429e-6
0.899, 5.804e-6
0.966, 5.867e-6
1.033, 5.720e-6
1.100, 5.509e-6
1.167, 5.476e-6
1.166, 3.583e-6
1.099, 1.581e-6
1.032, 4.968e-7
0.965, -2.213e-7
0.898, -7.637e-7
0.831, -1.232e-6
0.764, -1.741e-6
0.697, -2.463e-6
0.630, -3.491e-6
0.563, -4.566e-6
0.496, -5.349e-6
0.429, -5.509e-6
0.362, -5.192e-6
0.295, -4.744e-6
0.228, -4.349e-6
0.239, -3.090e-6
0.306, -2.252e-6
0.373, -1.638e-6
0.440, -9.770e-7
0.507, -8.456e-8
0.574, 1.072e-6
0.641, 2.402e-6
0.708, 3.727e-6
0.775, 4.796e-6
0.842, 5.484e-6
0.909, 5.811e-6
0.976, 5.843e-6
1.043, 5.686e-6
1.110, 5.488e-6
1.177, 5.527e-6
1.156, 3.182e-6
1.089, 1.393e-6
1.022, 3.882e-7
0.955, -2.913e-7
0.888, -8.150e-7
0.821, -1.281e-6
0.754, -1.814e-6
0.687, -2.585e-6
0.620, -3.642e-6
0.553, -4.700e-6
0.486, -5.411e-6
0.419, -5.489e-6
0.352, -5.142e-6
0.285, -4.700e-6
0.218, -4.320e-6
0.249, -2.943e-6
0.316, -2.160e-6
0.383, -1.550e-6
0.450, -8.631e-7
0.517, 6.735e-8
0.584, 1.251e-6
0.651, 2.590e-6
0.718, 3.889e-6
0.785, 4.899e-6
0.852, 5.531e-6
0.919, 5.813e-6
0.986, 5.817e-6
1.053, 5.652e-6
1.120, 5.470e-6
1.187, 5.605e-6
1.146, 2.831e-6
1.079, 1.222e-6
1.012, 2.886e-7
0.945, -3.592e-7
0.878, -8.656e-7
0.811, -1.335e-6
0.744, -1.893e-6
0.677, -2.715e-6
0.610, -3.792e-6
0.543, -4.827e-6
0.476, -5.457e-6
0.409, -5.458e-6
0.342, -5.089e-6
0.275, -4.655e-6
0.208, -4.291e-6
0.259, -2.808e-6
0.326, -2.069e-6
0.393, -1.459e-6
0.460, -7.459e-7
0.527, 2.220e-7
0.594, 1.432e-6
0.661, 2.774e-6
0.728, 4.039e-6
0.795, 4.992e-6
0.862, 5.569e-6
0.929, 5.809e-6
0.996, 5.786e-6
1.063, 5.618e-6
1.130, 5.456e-6
1.197, 5.709e-6
1.136, 2.519e-6
1.069, 1.064e-6
1.002, 1.926e-7
0.935, -4.244e-7
0.868, -9.188e-7
0.801, -1.392e-6
0.734, -1.980e-6
0.667, -2.852e-6
0.600, -3.941e-6
0.533, -4.945e-6
0.466, -5.490e-6
0.399, -5.422e-6
0.332, -5.035e-6
0.265, -4.611e-6
0.202, -4.085e-6
0.269, -2.683e-6
0.336, -1.979e-6
0.403, -1.365e-6
0.470, -6.220e-7
0.537, 3.804e-7
0.604, 1.616e-6
0.671, 2.957e-6
0.738, 4.182e-6
0.805, 5.077e-6
0.872, 5.604e-6
0.939, 5.803e-6
1.006, 5.759e-6
1.073, 5.588e-6
1.140, 5.452e-6
1.193, 5.084e-6
1.126, 2.245e-6
1.059, 9.201e-7
0.992, 1.032e-7
0.925, -4.868e-7
0.858, -9.705e-7
0.791, -1.453e-6
0.724, -2.075e-6
0.657, -2.994e-6
0.590, -4.091e-6
0.523, -5.056e-6
0.456, -5.512e-6
0.389, -5.381e-6
0.322, -4.982e-6
0.255, -4.569e-6
0.212, -3.723e-6
0.279, -2.565e-6
0.346, -1.889e-6
0.413, -1.267e-6
0.480, -4.934e-7
0.547, 5.430e-7
0.614, 1.798e-6
0.681, 3.134e-6
0.748, 4.314e-6
0.815, 5.152e-6
0.882, 5.628e-6
0.949, 5.791e-6
1.016, 5.726e-6
1.083, 5.556e-6
1.150, 5.451e-6
1.183, 4.434e-6
1.116, 1.998e-6
1.049, 7.855e-7
0.982, 1.909e-8
0.915, -5.468e-7
0.848, -1.022e-6
0.781, -1.516e-6
0.714, -2.176e-6
0.647, -3.138e-6
0.580, -4.233e-6
0.513, -5.147e-6
0.446, -5.512e-6
0.379, -5.326e-6
0.312, -4.922e-6
0.245, -4.521e-6
0.222, -3.473e-6
0.289, -2.449e-6
0.356, -1.796e-6
0.423, -1.167e-6
0.490, -3.601e-7
0.557, 7.082e-7
0.624, 1.976e-6
0.691, 3.301e-6
0.758, 4.433e-6
0.825, 5.214e-6
0.892, 5.641e-6
0.959, 5.769e-6
1.026, 5.690e-6
1.093, 5.522e-6
1.160, 5.460e-6
1.173, 3.908e-6
1.106, 1.775e-6
1.039, 6.598e-7
0.972, -6.194e-8
0.905, -6.049e-7
0.838, -1.075e-6
0.771, -1.582e-6
0.704, -2.283e-6
0.637, -3.281e-6
0.570, -4.368e-6
0.503, -5.223e-6
0.436, -5.496e-6
0.369, -5.265e-6
0.302, -4.859e-6
0.235, -4.474e-6
0.232, -3.265e-6
0.299, -2.339e-6
0.366, -1.704e-6
0.433, -1.062e-6
0.500, -2.219e-7
0.567, 8.754e-7
0.634, 2.155e-6
0.701, 3.461e-6
0.768, 4.541e-6
0.835, 5.266e-6
0.902, 5.646e-6
0.969, 5.743e-6
1.036, 5.651e-6
1.103, 5.491e-6
1.170, 5.482e-6
1.163, 3.462e-6
1.096, 1.572e-6
1.029, 5.437e-7
0.962, -1.379e-7
0.895, -6.601e-7
0.828, -1.128e-6
0.761, -1.654e-6
0.694, -2.399e-6
0.627, -3.428e-6
0.560, -4.503e-6
0.493, -5.294e-6
0.426, -5.485e-6
0.359, -5.217e-6
0.292, -4.811e-6
0.225, -4.439e-6
0.242, -3.093e-6
0.309, -2.240e-6
0.376, -1.615e-6
0.443, -9.547e-7
0.510, -7.837e-8
0.577, 1.048e-6
0.644, 2.341e-6
0.711, 3.624e-6
0.778, 4.654e-6
0.845, 5.325e-6
0.912, 5.662e-6
0.979, 5.730e-6
1.046, 5.626e-6
1.113, 5.474e-6
1.180, 5.539e-6
1.153, 3.087e-6
1.086, 1.393e-6
1.019, 4.387e-7
0.952, -2.091e-7
0.885, -7.148e-7
0.818, -1.186e-6
0.751, -1.734e-6
0.684, -2.526e-6
0.617, -3.578e-6
0.550, -4.635e-6
0.483, -5.354e-6
0.416, -5.462e-6
0.349, -5.163e-6
0.282, -4.759e-6
0.215, -4.404e-6
0.252, -2.935e-6
0.319, -2.140e-6
0.386, -1.522e-6
0.453, -8.402e-7
0.520, 6.982e-8
0.587, 1.221e-6
0.654, 2.520e-6
0.721, 3.774e-6
0.788, 4.750e-6
0.855, 5.367e-6
0.922, 5.663e-6
0.989, 5.703e-6
1.056, 5.592e-6
1.123, 5.454e-6
1.190, 5.613e-6
1.143, 2.751e-6
1.076, 1.228e-6
1.009, 3.394e-7
0.942, -2.766e-7
0.875, -7.687e-7
0.808, -1.244e-6
0.741, -1.819e-6
0.674, -2.657e-6
0.607, -3.728e-6
0.540, -4.761e-6
0.473, -5.401e-6
0.406, -5.436e-6
0.339, -5.113e-6
0.272, -4.715e-6
0.205, -4.374e-6
0.262, -2.797e-6
0.329, -2.047e-6
0.396, -1.431e-6
0.463, -7.233e-7
0.530, 2.219e-7
0.597, 1.399e-6
0.664, 2.703e-6
0.731, 3.926e-6
0.798, 4.849e-6
0.865, 5.417e-6
0.932, 5.673e-6
0.999, 5.690e-6
1.066, 5.570e-6
1.133, 5.449e-6
1.200, 5.713e-6
1.133, 2.463e-6
1.066, 1.079e-6
0.999, 2.478e-7
0.932, -3.431e-7
0.865, -8.252e-7
0.798, -1.306e-6
0.731, -1.913e-6
0.664, -2.799e-6
0.597, -3.882e-6
0.530, -4.887e-6
0.463, -5.443e-6
0.396, -5.411e-6
0.329, -5.069e-6
0.262, -4.677e-6
0.205, -4.026e-6
0.272, -2.670e-6
0.339, -1.955e-6
0.406, -1.337e-6
0.473, -6.019e-7
0.540, 3.777e-7
0.607, 1.580e-6
0.674, 2.883e-6
0.741, 4.069e-6
0.808, 4.939e-6
0.875, 5.460e-6
0.942, 5.678e-6
1.009, 5.672e-6
1.076, 5.549e-6
1.143, 5.449e-6
1.190, 4.866e-6
1.123, 2.204e-6
1.056, 9.414e-7
0.989, 1.608e-7
0.922, -4.071e-7
0.855, -8.830e-7
0.788, -1.373e-6
0.721, -2.015e-6
0.654, -2.943e-6
0.587, -4.035e-6
0.520, -5.001e-6
0.453, -5.470e-6
0.386, -5.377e-6
0.319, -5.020e-6
0.252, -4.637e-6
0.215, -3.709e-6
0.282, -2.551e-6
0.349, -1.865e-6
0.416, -1.242e-6
0.483, -4.754e-7
0.550, 5.369e-7
0.617, 1.760e-6
0.684, 3.057e-6
0.751, 4.203e-6
0.818, 5.021e-6
0.885, 5.495e-6
0.952, 5.679e-6
1.019, 5.654e-6
1.086, 5.528e-6
1.153, 5.460e-6
1.180, 4.279e-6
1.113, 1.973e-6
1.046, 8.140e-7
0.979, 7.722e-8
0.912, -4.695e-7
0.845, -9.407e-7
0.778, -1.444e-6
0.711, -2.124e-6
0.644, -3.092e-6
0.577, -4.185e-6
0.510, -5.104e-6
0.443, -5.485e-6
0.376, -5.340e-6
0.309, -4.975e-6
0.242, -4.602e-6
0.225, -3.470e-6
0.292, -2.439e-6
0.359, -1.776e-6
0.426, -1.143e-6
0.493, -3.442e-7
0.560, 7.007e-7
0.627, 1.940e-6
0.694, 3.230e-6
0.761, 4.331e-6
0.828, 5.098e-6
0.895, 5.528e-6
0.962, 5.679e-6
1.029, 5.637e-6
1.096, 5.511e-6
1.163, 5.486e-6
1.170, 3.799e-6
1.103, 1.767e-6
1.036, 6.944e-7
0.969, -1.660e-9
0.902, -5.299e-7
0.835, -9.995e-7
0.768, -1.519e-6
0.701, -2.240e-6
0.634, -3.244e-6
0.567, -4.331e-6
0.500, -5.193e-6
0.433, -5.488e-6
0.366, -5.296e-6
0.299, -4.926e-6
0.232, -4.563e-6
0.235, -3.267e-6
0.302, -2.330e-6
0.369, -1.684e-6
0.436, -1.038e-6
0.503, -2.078e-7
0.570, 8.682e-7
0.637, 2.120e-6
0.704, 3.394e-6
0.771, 4.448e-6
0.838, 5.162e-6
0.905, 5.549e-6
0.972, 5.669e-6
1.039, 5.613e-6
1.106, 5.492e-6
1.173, 5.523e-6
1.160, 3.385e-6
1.093, 1.575e-6
1.026, 5.819e-7
0.959, -7.879e-8
0.892, -5.909e-7
0.825, -1.060e-6
0.758, -1.599e-6
0.691, -2.363e-6
0.624, -3.393e-6
0.557, -4.466e-6
0.490, -5.261e-6
0.423, -5.472e-6
0.356, -5.241e-6
0.289, -4.869e-6
0.222, -4.519e-6
0.245, -3.084e-6
0.312, -2.222e-6
0.379, -1.589e-6
0.446, -9.288e-7
0.513, -6.547e-8
0.580, 1.035e-6
0.647, 2.297e-6
0.714, 3.545e-6
0.781, 4.549e-6
0.848, 5.213e-6
0.915, 5.559e-6
0.982, 5.652e-6
1.049, 5.586e-6
1.116, 5.472e-6
1.183, 5.579e-6
1.150, 3.020e-6
1.083, 1.399e-6
1.016, 4.775e-7
0.949, -1.505e-7
0.882, -6.468e-7
0.815, -1.120e-6
0.748, -1.682e-6
0.681, -2.490e-6
0.614, -3.542e-6
0.547, -4.600e-6
0.480, -5.324e-6
0.413, -5.458e-6
0.346, -5.197e-6
0.279, -4.827e-6
0.212, -4.488e-6
0.255, -2.929e-6
0.322, -2.123e-6
0.389, -1.498e-6
0.456, -8.166e-7
0.523, 7.901e-8
0.590, 1.206e-6
0.657, 2.476e-6
0.724, 3.698e-6
0.791, 4.652e-6
0.858, 5.266e-6
0.925, 5.575e-6
0.992, 5.643e-6
1.059, 5.567e-6
1.126, 5.466e-6
1.193, 5.668e-6
1.140, 2.706e-6
1.073, 1.241e-6
1.006, 3.820e-7
0.939, -2.168e-7
0.872, -7.013e-7
0.805, -1.180e-6
0.738, -1.771e-6
0.671, -2.624e-6
0.604, -3.693e-6
0.537, -4.729e-6
0.470, -5.377e-6
0.403, -5.440e-6
0.336, -5.154e-6
0.269, -4.786e-6
0.202, -4.460e-6
0.265, -2.788e-6
0.332, -2.027e-6
0.399, -1.404e-6
0.466, -6.999e-7
0.533, 2.294e-7
0.600, 1.380e-6
0.667, 2.654e-6
0.734, 3.843e-6
0.801, 4.747e-6
0.868, 5.314e-6
0.935, 5.585e-6
1.002, 5.630e-6
1.069, 5.549e-6
1.136, 5.464e-6
1.197, 5.422e-6
1.130, 2.426e-6
1.063, 1.095e-6
0.996, 2.929e-7
0.929, -2.806e-7
0.862, -7.560e-7
0.795, -1.243e-6
0.728, -1.864e-6
0.661, -2.761e-6
0.594, -3.840e-6
0.527, -4.847e-6
0.460, -5.411e-6
0.393, -5.411e-6
0.326, -5.106e-6
0.259, -4.743e-6
0.208, -3.989e-6
0.275, -2.656e-6
0.342, -1.932e-6
0.409, -1.308e-6
0.476, -5.787e-7
0.543, 3.814e-7
0.610, 1.556e-6
0.677, 2.826e-6
0.744, 3.979e-6
0.811, 4.831e-6
0.878, 5.352e-6
0.945, 5.588e-6
1.012, 5.613e-6
1.079, 5.527e-6
1.146, 5.465e-6
1.187, 4.689e-6
1.120, 2.172e-6
1.053, 9.601e-7
0.986, 2.075e-7
0.919, -3.425e-7
0.852, -8.101e-7
0.785, -1.306e-6
0.718, -1.964e-6
0.651, -2.900e-6
0.584, -3.986e-6
0.517, -4.953e-6
0.450, -5.433e-6
0.383, -5.379e-6
0.316, -5.059e-6
0.249, -4.700e-6
0.218, -3.686e-6
0.285, -2.532e-6
0.352, -1.838e-6
0.419, -1.212e-6
0.486, -4.532e-7
0.553, 5.384e-7
0.620, 1.732e-6
0.687, 2.995e-6
0.754, 4.108e-6
0.821, 4.913e-6
0.888, 5.386e-6
0.955, 5.588e-6
1.022, 5.595e-6
1.089, 5.508e-6
1.156, 5.476e-6
1.177, 4.138e-6
1.110, 1.947e-6
1.043, 8.350e-7
0.976, 1.271e-7
0.909, -4.020e-7
0.842, -8.660e-7
0.775, -1.377e-6
0.708, -2.073e-6
0.641, -3.045e-6
0.574, -4.135e-6
0.507, -5.055e-6
0.440, -5.452e-6
0.373, -5.342e-6
0.306, -5.014e-6
0.239, -4.665e-6
0.228, -3.451e-6
0.295, -2.417e-6
0.362, -1.747e-6
0.429, -1.112e-6
0.496, -3.231e-7
0.563, 6.994e-7
0.630, 1.908e-6
0.697, 3.164e-6
0.764, 4.233e-6
0.831, 4.987e-6
0.898, 5.419e-6
0.965, 5.590e-6
1.032, 5.580e-6
1.099, 5.493e-6
1.166, 5.504e-6
1.167, 3.683e-6
1.100, 1.748e-6
1.033, 7.210e-7
0.966, 5.100e-8
0.899, -4.609e-7
0.832, -9.255e-7
0.765, -1.454e-6
0.698, -2.191e-6
0.631, -3.195e-6
0.564, -4.282e-6
0.497, -5.147e-6
0.430, -5.462e-6
0.363, -5.308e-6
0.296, -4.974e-6
0.229, -4.634e-6
0.238, -3.253e-6
0.305, -2.310e-6
0.372, -1.656e-6
0.439, -1.009e-6
0.506, -1.884e-7
0.573, 8.652e-7
0.640, 2.089e-6
0.707, 3.332e-6
0.774, 4.363e-6
0.841, 5.070e-6
0.908, 5.464e-6
0.975, 5.603e-6
1.042, 5.576e-6
1.109, 5.492e-6
1.176, 5.563e-6
1.157, 3.305e-6
1.090, 1.574e-6
1.023, 6.176e-7
0.956, -1.744e-8
0.889, -5.149e-7
0.822, -9.832e-7
0.755, -1.535e-6
0.688, -2.318e-6
0.621, -3.354e-6
0.554, -4.434e-6
0.487, -5.238e-6
0.420, -5.473e-6
0.353, -5.277e-6
0.286, -4.935e-6
0.219, -4.603e-6
0.248, -3.076e-6
0.315, -2.204e-6
0.382, -1.562e-6
0.449, -9.005e-7
0.516, -4.899e-8
0.583, 1.030e-6
0.650, 2.269e-6
0.717, 3.499e-6
0.784, 4.495e-6
0.851, 5.161e-6
0.918, 5.514e-6
0.985, 5.618e-6
1.052, 5.570e-6
1.119, 5.487e-6
1.186, 5.638e-6
1.147, 2.967e-6
1.080, 1.406e-6
1.013, 5.165e-7
0.946, -9.074e-8
0.879, -5.767e-7
0.812, -1.053e-6
0.745, -1.631e-6
0.678, -2.459e-6
0.611, -3.515e-6
0.544, -4.574e-6
0.477, -5.300e-6
0.410, -5.453e-6
0.343, -5.226e-6
0.276, -4.883e-6
0.209, -4.565e-6
0.258, -2.914e-6
0.325, -2.100e-6
0.392, -1.469e-6
0.459, -7.891e-7
0.526, 9.208e-8
0.593, 1.196e-6
0.660, 2.443e-6
0.727, 3.647e-6
0.794, 4.599e-6
0.861, 5.220e-6
0.928, 5.536e-6
0.995, 5.614e-6
1.062, 5.553e-6
1.129, 5.479e-6
1.196, 5.729e-6
1.137, 2.662e-6
1.070, 1.249e-6
1.003, 4.185e-7
0.936, -1.627e-7
0.869, -6.407e-7
0.802, -1.125e-6
0.735, -1.733e-6
0.668, -2.603e-6
0.601, -3.673e-6
0.534, -4.708e-6
0.467, -5.357e-6
0.400, -5.441e-6
0.333, -5.188e-6
0.266, -4.848e-6
0.201, -4.433e-6
0.268, -2.775e-6
0.335, -2.006e-6
0.402, -1.378e-6
0.469, -6.754e-7
0.536, 2.390e-7
0.603, 1.369e-6
0.670, 2.621e-6
0.737, 3.797e-6
0.804, 4.702e-6
0.871, 5.279e-6
0.938, 5.560e-6
1.005, 5.614e-6
1.072, 5.544e-6
1.139, 5.484e-6
1.194, 5.204e-6
1.127, 2.395e-6
1.060, 1.108e-6
0.993, 3.276e-7
0.926, -2.314e-7
0.859, -7.033e-7
0.792, -1.200e-6
0.725, -1.839e-6
0.658, -2.750e-6
0.591, -3.832e-6
0.524, -4.837e-6
0.457, -5.404e-6
0.390, -5.425e-6
0.323, -5.150e-6
0.256, -4.813e-6
0.211, -3.960e-6
0.278, -2.644e-6
0.345, -1.911e-6
0.412, -1.282e-6
0.479, -5.559e-7
0.546, 3.895e-7
0.613, 1.544e-6
0.680, 2.794e-6
0.747, 3.935e-6
0.814, 4.792e-6
0.881, 5.324e-6
0.948, 5.572e-6
1.015, 5.606e-6
1.082, 5.531e-6
1.149, 5.493e-6
1.184, 4.553e-6
1.117, 2.151e-6
1.050, 9.750e-7
0.983, 2.418e-7
0.916, -2.974e-7
0.849, -7.651e-7
0.782, -1.272e-6
0.715, -1.948e-6
0.648, -2.894e-6
0.581, -3.982e-6
0.514, -4.946e-6
0.447, -5.429e-6
0.380, -5.393e-6
0.313, -5.103e-6
0.246, -4.771e-6
0.221, -3.668e-6
0.288, -2.518e-6
0.355, -1.816e-6
0.422, -1.185e-6
0.489, -4.317e-7
0.556, 5.429e-7
0.623, 1.715e-6
0.690, 2.958e-6
0.757, 4.060e-6
0.824, 4.869e-6
0.891, 5.358e-6
0.958, 5.575e-6
1.025, 5.593e-6
1.092, 5.516e-6
1.159, 5.512e-6
1.174, 4.036e-6
1.107, 1.933e-6
1.040, 8.531e-7
0.973, 1.615e-7
0.906, -3.598e-7
0.839, -8.253e-7
0.772, -1.347e-6
0.705, -2.060e-6
0.638, -3.040e-6
0.571, -4.129e-6
0.504, -5.045e-6
0.437, -5.447e-6
0.370, -5.363e-6
0.303, -5.062e-6
0.236, -4.736e-6
0.201, -4.587e-6