File: Data/2022-03-23 MQ HCF/CV-Carbon-FeHCF-1.txt
Mar. 22, 2022   14:31:51
Cyclic Voltammetry
File: d:\mq\20220322-pba stability\cv-carbon-fehcf-1.txt
Data Source:  Experiment
Instrument Model:  CHI840D
Header:
Note:

Init E (V) = -0.3
High E (V) = 0.5
Low E (V) = -0.3
Init P/N = P
Scan Rate (V/s) = 0.05
Segment = 100
Sample Interval (V) = 0.001
Quiet Time (sec) = 2
Sensitivity (A/V) = 1e-5

Segment 1:

Segment 2:

Segment 3:

Segment 4:

Segment 5:

Segment 6:

Segment 7:

Segment 8:

Segment 9:

Segment 10:

Segment 11:

Segment 12:

Segment 13:

Segment 14:

Segment 15:

Segment 16:

Segment 17:

Segment 18:

Segment 19:

Segment 20:

Segment 21:

Segment 22:

Segment 23:

Segment 24:

Segment 25:

Segment 26:

Segment 27:

Segment 28:

Segment 29:

Segment 30:

Segment 31:

Segment 32:

Segment 33:

Segment 34:

Segment 35:

Segment 36:

Segment 37:

Segment 38:

Segment 39:

Segment 40:

Segment 41:

Segment 42:

Segment 43:

Segment 44:

Segment 45:

Segment 46:

Segment 47:

Segment 48:

Segment 49:

Segment 50:

Segment 51:

Segment 52:

Segment 53:

Segment 54:

Segment 55:

Segment 56:

Segment 57:

Segment 58:

Segment 59:

Segment 60:

Segment 61:

Segment 62:

Segment 63:

Segment 64:

Segment 65:

Segment 66:

Segment 67:

Segment 68:

Segment 69:

Segment 70:

Segment 71:

Segment 72:

Segment 73:

Segment 74:

Segment 75:

Segment 76:

Segment 77:

Segment 78:

Segment 79:

Segment 80:

Segment 81:

Segment 82:

Segment 83:

Segment 84:

Segment 85:

Segment 86:

Segment 87:

Segment 88:

Segment 89:

Segment 90:

Segment 91:

Segment 92:

Segment 93:

Segment 94:

Segment 95:

Segment 96:

Segment 97:

Segment 98:

Segment 99:

Segment 100:

Potential/V, Current/A

-0.300, -3.610e-6
-0.246, -1.928e-6
-0.192, -1.107e-6
-0.138, -3.722e-8
-0.084, 2.116e-6
-0.030, 5.442e-6
0.024, 9.011e-6
0.078, 1.187e-5
0.132, 1.387e-5
0.186, 1.530e-5
0.240, 1.580e-5
0.294, 1.341e-5
0.348, 5.921e-6
0.402, 2.135e-6
0.456, 1.096e-6
0.490, 5.508e-7
0.436, 2.140e-7
0.382, 5.700e-8
0.328, -2.446e-7
0.274, -1.253e-6
0.220, -3.633e-6
0.166, -7.085e-6
0.112, -1.067e-5
0.058, -1.360e-5
0.004, -1.536e-5
-0.050, -1.550e-5
-0.104, -1.391e-5
-0.158, -9.499e-6
-0.212, -4.840e-6
-0.266, -3.084e-6
-0.280, -2.007e-6
-0.226, -1.245e-6
-0.172, -6.282e-7
-0.118, 5.603e-7
-0.064, 3.049e-6
-0.010, 6.567e-6
0.044, 1.003e-5
0.098, 1.263e-5
0.152, 1.441e-5
0.206, 1.558e-5
0.260, 1.526e-5
0.314, 1.073e-5
0.368, 4.011e-6
0.422, 1.722e-6
0.476, 1.004e-6
0.470, 4.076e-7
0.416, 1.745e-7
0.362, 3.848e-9
0.308, -4.290e-7
0.254, -1.804e-6
0.200, -4.595e-6
0.146, -8.197e-6
0.092, -1.164e-5
0.038, -1.424e-5
-0.016, -1.547e-5
-0.070, -1.499e-5
-0.124, -1.250e-5
-0.178, -7.351e-6
-0.232, -4.015e-6
-0.286, -2.827e-6
-0.260, -1.642e-6
-0.206, -1.018e-6
-0.152, -3.356e-7
-0.098, 1.164e-6
-0.044, 4.023e-6
0.010, 7.649e-6
0.064, 1.091e-5
0.118, 1.323e-5
0.172, 1.480e-5
0.226, 1.554e-5
0.280, 1.401e-5
0.334, 7.677e-6
0.388, 2.972e-6
0.442, 1.479e-6
0.496, 9.636e-7
0.450, 3.330e-7
0.396, 1.417e-7
0.342, -7.005e-8
0.288, -7.072e-7
0.234, -2.514e-6
0.180, -5.654e-6
0.126, -9.287e-6
0.072, -1.250e-5
0.018, -1.467e-5
-0.036, -1.528e-5
-0.090, -1.411e-5
-0.144, -1.054e-5
-0.198, -5.780e-6
-0.252, -3.497e-6
-0.294, -2.399e-6
-0.240, -1.387e-6
-0.186, -8.170e-7
-0.132, 8.197e-9
-0.078, 1.885e-6
-0.024, 5.056e-6
0.030, 8.666e-6
0.084, 1.165e-5
0.138, 1.369e-5
0.192, 1.501e-5
0.246, 1.512e-5
0.300, 1.194e-5
0.354, 5.425e-6
0.408, 2.385e-6
0.462, 1.337e-6
0.484, 6.553e-7
0.430, 2.879e-7
0.376, 1.059e-7
0.322, -1.839e-7
0.268, -1.107e-6
0.214, -3.362e-6
0.160, -6.749e-6
0.106, -1.030e-5
0.052, -1.320e-5
-0.002, -1.485e-5
-0.056, -1.479e-5
-0.110, -1.285e-5
-0.164, -8.466e-6
-0.218, -4.761e-6
-0.272, -3.172e-6
-0.274, -1.939e-6
-0.220, -1.182e-6
-0.166, -6.069e-7
-0.112, 4.380e-7
-0.058, 2.707e-6
-0.004, 6.092e-6
0.050, 9.577e-6
0.104, 1.226e-5
0.158, 1.403e-5
0.212, 1.501e-5
0.266, 1.419e-5
0.320, 9.317e-6
0.374, 4.074e-6
0.428, 2.035e-6
0.482, 1.260e-6
0.464, 5.296e-7
0.410, 2.520e-7
0.356, 5.977e-8
0.302, -3.567e-7
0.248, -1.639e-6
0.194, -4.310e-6
0.140, -7.821e-6
0.086, -1.120e-5
0.032, -1.370e-5
-0.022, -1.474e-5
-0.076, -1.399e-5
-0.130, -1.119e-5
-0.184, -6.789e-6
-0.238, -4.107e-6
-0.292, -2.984e-6
-0.254, -1.631e-6
-0.200, -9.983e-7
-0.146, -3.649e-7
-0.092, 9.709e-7
-0.038, 3.597e-6
0.016, 7.083e-6
0.070, 1.035e-5
0.124, 1.272e-5
0.178, 1.425e-5
0.232, 1.471e-5
0.286, 1.264e-5
0.340, 6.986e-6
0.394, 3.277e-6
0.448, 1.823e-6
0.498, 1.109e-6
0.444, 4.562e-7
0.390, 2.202e-7
0.336, -8.703e-9
0.282, -6.141e-7
0.228, -2.307e-6
0.174, -5.306e-6
0.120, -8.824e-6
0.066, -1.193e-5
0.012, -1.395e-5
-0.042, -1.433e-5
-0.096, -1.290e-5
-0.150, -9.356e-6
-0.204, -5.624e-6
-0.258, -3.682e-6
-0.288, -2.416e-6
-0.234, -1.396e-6
-0.180, -8.212e-7
-0.126, -6.789e-8
-0.072, 1.603e-6
-0.018, 4.513e-6
0.036, 7.981e-6
0.090, 1.098e-5
0.144, 1.305e-5
0.198, 1.427e-5
0.252, 1.402e-5
0.306, 1.055e-5
0.360, 5.386e-6
0.414, 2.791e-6
0.468, 1.697e-6
0.478, 8.401e-7
0.424, 4.049e-7
0.370, 1.843e-7
0.316, -1.134e-7
0.262, -9.786e-7
0.208, -3.085e-6
0.154, -6.301e-6
0.100, -9.712e-6
0.046, -1.246e-5
-0.008, -1.392e-5
-0.062, -1.363e-5
-0.116, -1.150e-5
-0.170, -7.714e-6
-0.224, -4.841e-6
-0.278, -3.416e-6
-0.268, -1.995e-6
-0.214, -1.204e-6
-0.160, -6.352e-7
-0.106, 3.005e-7
-0.052, 2.309e-6
0.002, 5.407e-6
0.056, 8.746e-6
0.110, 1.144e-5
0.164, 1.324e-5
0.218, 1.402e-5
0.272, 1.283e-5
0.326, 8.416e-6
0.380, 4.386e-6
0.434, 2.494e-6
0.488, 1.635e-6
0.458, 7.154e-7
0.404, 3.674e-7
0.350, 1.406e-7
0.296, -2.687e-7
0.242, -1.454e-6
0.188, -3.930e-6
0.134, -7.239e-6
0.080, -1.044e-5
0.026, -1.276e-5
-0.028, -1.358e-5
-0.082, -1.265e-5
-0.136, -9.914e-6
-0.190, -6.479e-6
-0.244, -4.317e-6
-0.298, -3.270e-6
-0.248, -1.695e-6
-0.194, -1.029e-6
-0.140, -4.229e-7
-0.086, 7.486e-7
-0.032, 3.051e-6
0.022, 6.221e-6
0.076, 9.355e-6
0.130, 1.174e-5
0.184, 1.323e-5
0.238, 1.346e-5
0.292, 1.121e-5
0.346, 6.750e-6
0.400, 3.760e-6
0.454, 2.314e-6
0.492, 1.358e-6
0.438, 6.348e-7
0.384, 3.329e-7
0.330, 7.773e-8
0.276, -4.951e-7
0.222, -2.037e-6
0.168, -4.791e-6
0.114, -8.070e-6
0.060, -1.097e-5
0.006, -1.277e-5
-0.048, -1.296e-5
-0.102, -1.145e-5
-0.156, -8.406e-6
-0.210, -5.606e-6
-0.264, -3.968e-6
-0.282, -2.525e-6
-0.228, -1.457e-6
-0.174, -8.594e-7
-0.120, -1.698e-7
-0.066, 1.263e-6
-0.012, 3.781e-6
0.042, 6.915e-6
0.096, 9.791e-6
0.150, 1.188e-5
0.204, 1.299e-5
0.258, 1.251e-5
0.312, 9.425e-6
0.366, 5.615e-6
0.420, 3.368e-6
0.474, 2.213e-6
0.472, 1.119e-6
0.418, 5.779e-7
0.364, 2.986e-7
0.310, -1.303e-8
0.256, -8.035e-7
0.202, -2.692e-6
0.148, -5.610e-6
0.094, -8.748e-6
0.040, -1.127e-5
-0.014, -1.249e-5
-0.068, -1.209e-5
-0.122, -1.009e-5
-0.176, -7.184e-6
-0.230, -4.995e-6
-0.284, -3.747e-6
-0.262, -2.101e-6
-0.208, -1.257e-6
-0.154, -6.869e-7
-0.100, 1.347e-7
-0.046, 1.811e-6
0.008, 4.450e-6
0.062, 7.452e-6
0.116, 1.004e-5
0.170, 1.183e-5
0.224, 1.247e-5
0.278, 1.123e-5
0.332, 7.877e-6
0.386, 4.873e-6
0.440, 3.125e-6
0.494, 2.173e-6
0.452, 9.809e-7
0.398, 5.334e-7
0.344, 2.560e-7
0.290, -1.453e-7
0.236, -1.193e-6
0.182, -3.368e-6
0.128, -6.324e-6
0.074, -9.223e-6
0.020, -1.128e-5
-0.034, -1.192e-5
-0.088, -1.102e-5
-0.142, -8.745e-6
-0.196, -6.269e-6
-0.250, -4.569e-6
-0.296, -3.334e-6
-0.242, -1.786e-6
-0.188, -1.078e-6
-0.134, -4.972e-7
-0.080, 4.788e-7
-0.026, 2.343e-6
0.028, 4.998e-6
0.082, 7.797e-6
0.136, 1.008e-5
0.190, 1.151e-5
0.244, 1.164e-5
0.298, 9.783e-6
0.352, 6.728e-6
0.406, 4.396e-6
0.460, 2.988e-6
0.486, 1.768e-6
0.432, 8.900e-7
0.378, 4.962e-7
0.324, 2.015e-7
0.270, -3.244e-7
0.216, -1.641e-6
0.162, -4.014e-6
0.108, -6.892e-6
0.054, -9.462e-6
0.000, -1.100e-5
-0.054, -1.111e-5
-0.108, -9.818e-6
-0.162, -7.588e-6
-0.216, -5.603e-6
-0.270, -4.283e-6
-0.276, -2.656e-6
-0.222, -1.528e-6
-0.168, -9.062e-7
-0.114, -2.848e-7
-0.060, 8.496e-7
-0.006, 2.822e-6
0.048, 5.397e-6
0.102, 7.945e-6
0.156, 9.950e-6
0.210, 1.096e-5
0.264, 1.056e-5
0.318, 8.451e-6
0.372, 5.929e-6
0.426, 4.089e-6
0.480, 2.922e-6
0.466, 1.511e-6
0.412, 8.199e-7
0.358, 4.575e-7
0.304, 1.257e-7
0.250, -5.569e-7
0.196, -2.118e-6
0.142, -4.571e-6
0.088, -7.270e-6
0.034, -9.431e-6
-0.020, -1.046e-5
-0.074, -1.013e-5
-0.128, -8.630e-6
-0.182, -6.679e-6
-0.236, -5.117e-6
-0.290, -4.097e-6
-0.256, -2.206e-6
-0.202, -1.308e-6
-0.148, -7.345e-7
-0.094, -4.954e-8
-0.040, 1.209e-6
0.014, 3.207e-6
0.068, 5.625e-6
0.122, 7.890e-6
0.176, 9.542e-6
0.230, 1.017e-5
0.284, 9.373e-6
0.338, 7.384e-6
0.392, 5.374e-6
0.446, 3.891e-6
0.500, 2.889e-6
0.446, 1.338e-6
0.392, 7.597e-7
0.338, 4.115e-7
0.284, 2.310e-8
0.230, -8.334e-7
0.176, -2.578e-6
0.122, -5.001e-6
0.068, -7.427e-6
0.014, -9.136e-6
-0.040, -9.692e-6
-0.094, -9.068e-6
-0.148, -7.562e-6
-0.202, -5.979e-6
-0.256, -4.757e-6
-0.290, -3.408e-6
-0.236, -1.853e-6
-0.182, -1.108e-6
-0.128, -5.584e-7
-0.074, 1.972e-7
-0.020, 1.526e-6
0.034, 3.464e-6
0.088, 5.669e-6
0.142, 7.677e-6
0.196, 8.946e-6
0.250, 9.224e-6
0.304, 8.255e-6
0.358, 6.581e-6
0.412, 4.988e-6
0.466, 3.763e-6
0.480, 2.268e-6
0.426, 1.205e-6
0.372, 6.992e-7
0.318, 3.528e-7
0.264, -1.132e-7
0.210, -1.137e-6
0.156, -2.974e-6
0.102, -5.269e-6
0.048, -7.353e-6
-0.006, -8.616e-6
-0.060, -8.804e-6
-0.114, -8.009e-6
-0.168, -6.686e-6
-0.222, -5.441e-6
-0.276, -4.496e-6
-0.270, -2.721e-6
-0.216, -1.558e-6
-0.162, -9.197e-7
-0.108, -3.761e-7
-0.054, 4.349e-7
-0.000, 1.772e-6
0.054, 3.587e-6
0.108, 5.545e-6
0.162, 7.215e-6
0.216, 8.198e-6
0.270, 8.228e-6
0.324, 7.315e-6
0.378, 5.977e-6
0.432, 4.701e-6
0.486, 3.673e-6
0.460, 1.930e-6
0.406, 1.087e-6
0.352, 6.338e-7
0.298, 2.788e-7
0.244, -2.754e-7
0.190, -1.430e-6
0.136, -3.270e-6
0.082, -5.350e-6
0.028, -7.051e-6
-0.026, -7.920e-6
-0.080, -7.871e-6
-0.134, -7.058e-6
-0.188, -5.988e-6
-0.242, -5.026e-6
-0.296, -4.319e-6
-0.250, -2.222e-6
-0.196, -1.302e-6
-0.142, -7.393e-7
-0.088, -1.931e-7
-0.034, 6.424e-7
0.020, 1.927e-6
0.074, 3.575e-6
0.128, 5.315e-6
0.182, 6.638e-6
0.236, 7.375e-6
0.290, 7.305e-6
0.344, 6.561e-6
0.398, 5.514e-6
0.452, 4.474e-6
0.494, 3.268e-6
0.440, 1.673e-6
0.386, 9.739e-7
0.332, 5.597e-7
0.278, 1.858e-7
0.224, -4.570e-7
0.170, -1.691e-6
0.116, -3.445e-6
0.062, -5.255e-6
0.008, -6.586e-6
-0.046, -7.153e-6
-0.100, -6.957e-6
-0.154, -6.251e-6
-0.208, -5.430e-6
-0.262, -4.703e-6
-0.284, -3.328e-6
-0.230, -1.825e-6
-0.176, -1.073e-6
-0.122, -5.662e-7
-0.068, -1.788e-8
-0.014, 8.017e-7
0.040, 1.994e-6
0.094, 3.449e-6
0.148, 4.894e-6
0.202, 5.993e-6
0.256, 6.564e-6
0.310, 6.510e-6
0.364, 5.953e-6
0.418, 5.136e-6
0.472, 4.282e-6
0.474, 2.625e-6
0.420, 1.453e-6
0.366, 8.625e-7
0.312, 4.767e-7
0.258, 7.730e-8
0.204, -6.400e-7
0.150, -1.888e-6
0.096, -3.493e-6
0.042, -5.003e-6
-0.012, -6.017e-6
-0.066, -6.389e-6
-0.120, -6.156e-6
-0.174, -5.598e-6
-0.228, -4.993e-6
-0.282, -4.464e-6
-0.264, -2.624e-6
-0.210, -1.492e-6
-0.156, -8.666e-7
-0.102, -4.021e-7
-0.048, 1.361e-7
0.006, 9.177e-7
0.060, 1.991e-6
0.114, 3.299e-6
0.168, 4.446e-6
0.222, 5.357e-6
0.276, 5.843e-6
0.330, 5.853e-6
0.384, 5.459e-6
0.438, 4.819e-6
0.492, 4.111e-6
0.454, 2.174e-6
0.400, 1.259e-6
0.346, 7.506e-7
0.292, 3.855e-7
0.238, -4.329e-8
0.184, -8.117e-7
0.130, -2.020e-6
0.076, -3.436e-6
0.022, -4.660e-6
-0.032, -5.427e-6
-0.086, -5.668e-6
-0.140, -5.469e-6
-0.194, -5.080e-6
-0.248, -4.648e-6
-0.298, -4.085e-6
-0.244, -2.096e-6
-0.190, -1.212e-6
-0.136, -6.805e-7
-0.082, -2.512e-7
-0.028, 2.646e-7
0.026, 9.866e-7
0.080, 1.936e-6
0.134, 3.026e-6
0.188, 4.012e-6
0.242, 4.791e-6
0.296, 5.241e-6
0.350, 5.317e-6
0.404, 5.048e-6
0.458, 4.543e-6
0.488, 3.361e-6
0.434, 1.820e-6
0.380, 1.081e-6
0.326, 6.370e-7
0.272, 2.871e-7
0.218, -1.745e-7
0.164, -9.665e-7
0.110, -2.091e-6
0.056, -3.303e-6
0.002, -4.286e-6
-0.052, -4.889e-6
-0.106, -5.052e-6
-0.160, -4.928e-6
-0.214, -4.673e-6
-0.268, -4.387e-6
-0.278, -3.044e-6
-0.224, -1.679e-6
-0.170, -9.690e-7
-0.116, -5.126e-7
-0.062, -1.144e-7
-0.008, 3.675e-7
0.046, 1.024e-6
0.100, 1.894e-6
0.154, 2.771e-6
0.208, 3.626e-6
0.262, 4.316e-6
0.316, 4.756e-6
0.370, 4.881e-6
0.424, 4.699e-6
0.478, 4.296e-6
0.468, 2.655e-6
0.414, 1.521e-6
0.360, 9.147e-7
0.306, 5.223e-7
0.252, 1.799e-7
0.198, -3.085e-7
0.144, -1.094e-6
0.090, -2.111e-6
0.036, -3.125e-6
-0.018, -3.918e-6
-0.072, -4.401e-6
-0.126, -4.546e-6
-0.180, -4.501e-6
-0.234, -4.357e-6
-0.288, -4.193e-6
-0.258, -2.366e-6
-0.204, -1.337e-6
-0.150, -7.578e-7
-0.096, -3.618e-7
-0.042, 5.482e-9
0.012, 4.493e-7
0.066, 1.038e-6
0.120, 1.809e-6
0.174, 2.550e-6
0.228, 3.301e-6
0.282, 3.931e-6
0.336, 4.359e-6
0.390, 4.516e-6
0.444, 4.398e-6
0.498, 4.076e-6
0.448, 2.135e-6
0.394, 1.263e-6
0.340, 7.597e-7
0.286, 4.088e-7
0.232, 6.744e-8
0.178, -4.394e-7
0.124, -1.191e-6
0.070, -2.088e-6
0.016, -2.932e-6
-0.038, -3.598e-6
-0.092, -3.983e-6
-0.146, -4.146e-6
-0.200, -4.171e-6
-0.254, -4.115e-6
-0.292, -3.513e-6
-0.238, -1.858e-6
-0.184, -1.056e-6
-0.130, -5.753e-7
-0.076, -2.276e-7
-0.022, 1.074e-7
0.032, 5.123e-7
0.086, 1.042e-6
0.140, 1.683e-6
0.194, 2.367e-6
0.248, 3.042e-6
0.302, 3.629e-6
0.356, 4.044e-6
0.410, 4.217e-6
0.464, 4.142e-6
0.482, 3.067e-6
0.428, 1.729e-6
0.374, 1.039e-6
0.320, 6.134e-7
0.266, 2.966e-7
0.212, -4.825e-8
0.158, -5.577e-7
0.104, -1.256e-6
0.050, -2.034e-6
-0.004, -2.743e-6
-0.058, -3.311e-6
-0.112, -3.647e-6
-0.166, -3.832e-6
-0.220, -3.914e-6
-0.274, -3.937e-6
-0.272, -2.637e-6
-0.218, -1.453e-6
-0.164, -8.170e-7
-0.110, -4.173e-7
-0.056, -1.114e-7
-0.002, 1.923e-7
0.052, 5.601e-7
0.106, 1.101e-6
0.160, 1.601e-6
0.214, 2.216e-6
0.268, 2.837e-6
0.322, 3.389e-6
0.376, 3.785e-6
0.430, 3.966e-6
0.484, 3.922e-6
0.462, 2.387e-6
0.408, 1.398e-6
0.354, 8.436e-7
0.300, 4.801e-7
0.246, 1.870e-7
0.192, -1.626e-7
0.138, -6.605e-7
0.084, -1.295e-6
0.030, -1.963e-6
-0.024, -2.575e-6
-0.078, -3.052e-6
-0.132, -3.374e-6
-0.186, -3.589e-6
-0.240, -3.721e-6
-0.294, -3.824e-6
-0.252, -2.028e-6
-0.198, -1.132e-6
-0.144, -6.184e-7
-0.090, -2.815e-7
-0.036, -1.175e-8
0.018, 2.616e-7
0.072, 5.961e-7
0.126, 1.040e-6
0.180, 1.538e-6
0.234, 2.105e-6
0.288, 2.684e-6
0.342, 3.204e-6
0.396, 3.580e-6
0.450, 3.757e-6
0.496, 3.458e-6
0.442, 1.885e-6
0.388, 1.126e-6
0.334, 6.719e-7
0.280, 3.578e-7
0.226, 8.037e-8
0.172, -2.699e-7
0.118, -7.452e-7
0.064, -1.313e-6
0.010, -1.892e-6
-0.044, -2.440e-6
-0.098, -2.864e-6
-0.152, -3.172e-6
-0.206, -3.409e-6
-0.260, -3.585e-6
-0.286, -2.936e-6
-0.232, -1.566e-6
-0.178, -8.691e-7
-0.124, -4.531e-7
-0.070, -1.663e-7
-0.016, 7.048e-8
0.038, 3.187e-7
0.092, 6.670e-7
0.146, 1.022e-6
0.200, 1.495e-6
0.254, 2.027e-6
0.308, 2.573e-6
0.362, 3.060e-6
0.416, 3.414e-6
0.470, 3.583e-6
0.476, 2.592e-6
0.422, 1.495e-6
0.368, 8.992e-7
0.314, 5.223e-7
0.260, 2.468e-7
0.206, -2.104e-8
0.152, -3.666e-7
0.098, -8.122e-7
0.044, -1.317e-6
-0.010, -1.829e-6
-0.064, -2.311e-6
-0.118, -2.696e-6
-0.172, -3.018e-6
-0.226, -3.278e-6
-0.280, -3.500e-6
-0.266, -2.209e-6
-0.212, -1.207e-6
-0.158, -6.552e-7
-0.104, -3.133e-7
-0.050, -6.913e-8
0.004, 1.396e-7
0.058, 3.641e-7
0.112, 7.147e-7
0.166, 1.021e-6
0.220, 1.468e-6
0.274, 1.973e-6
0.328, 2.491e-6
0.382, 2.947e-6
0.436, 3.277e-6
0.490, 3.434e-6
0.456, 2.002e-6
0.402, 1.184e-6
0.348, 7.084e-7
0.294, 3.915e-7
0.240, 1.449e-7
0.186, -1.172e-7
0.132, -4.504e-7
0.078, -8.610e-7
0.024, -1.311e-6
-0.030, -1.791e-6
-0.084, -2.204e-6
-0.138, -2.579e-6
-0.192, -2.907e-6
-0.246, -3.188e-6
-0.300, -3.446e-6
-0.246, -1.685e-6
-0.192, -9.220e-7
-0.138, -4.802e-7
-0.084, -1.986e-7
-0.030, 9.435e-9
0.024, 1.952e-7
0.078, 4.044e-7
0.132, 6.818e-7
0.186, 1.029e-6
0.240, 1.460e-6
0.294, 1.945e-6
0.348, 2.437e-6
0.402, 2.864e-6
0.456, 3.168e-6
0.490, 2.799e-6
0.436, 1.568e-6
0.382, 9.364e-7
0.328, 5.481e-7
0.274, 2.797e-7
0.220, 5.197e-8
0.166, -2.049e-7
0.112, -5.235e-7
0.058, -9.028e-7
0.004, -1.311e-6
-0.050, -1.751e-6
-0.104, -2.142e-6
-0.158, -2.505e-6
-0.212, -2.839e-6
-0.266, -3.145e-6
-0.280, -2.428e-6
-0.226, -1.289e-6
-0.172, -6.938e-7
-0.118, -3.385e-7
-0.064, -1.038e-7
-0.010, 7.436e-8
0.044, 2.422e-7
0.098, 5.091e-7
0.152, 7.071e-7
0.206, 1.049e-6
0.260, 1.469e-6
0.314, 1.939e-6
0.368, 2.405e-6
0.422, 2.803e-6
0.476, 3.080e-6
0.470, 2.119e-6
0.416, 1.233e-6
0.362, 7.350e-7
0.308, 4.136e-7
0.254, 1.808e-7
0.200, -3.355e-8
0.146, -2.830e-7
0.092, -5.865e-7
0.038, -9.356e-7
-0.016, -1.323e-6
-0.070, -1.717e-6
-0.124, -2.094e-6
-0.178, -2.461e-6
-0.232, -2.805e-6
-0.286, -3.142e-6
-0.260, -1.830e-6
-0.206, -9.840e-7
-0.152, -5.126e-7
-0.098, -2.231e-7
-0.044, -2.583e-8
0.010, 1.281e-7
0.064, 2.838e-7
0.118, 5.019e-7
0.172, 7.385e-7
0.226, 1.079e-6
0.280, 1.493e-6
0.334, 1.947e-6
0.388, 2.390e-6
0.442, 2.760e-6
0.496, 3.009e-6
0.450, 1.645e-6
0.396, 9.713e-7
0.342, 5.687e-7
0.288, 3.001e-7
0.234, 9.307e-8
0.180, -1.130e-7
0.126, -3.533e-7
0.072, -6.407e-7
0.018, -9.671e-7
-0.036, -1.350e-6
-0.090, -1.715e-6
-0.144, -2.077e-6
-0.198, -2.444e-6
-0.252, -2.800e-6
-0.294, -2.742e-6
-0.240, -1.392e-6
-0.186, -7.418e-7
-0.132, -3.658e-7
-0.078, -1.292e-7
-0.024, 3.697e-8
0.030, 1.740e-7
0.084, 3.345e-7
0.138, 5.155e-7
0.192, 7.752e-7
0.246, 1.116e-6
0.300, 1.527e-6
0.354, 1.966e-6
0.408, 2.386e-6
0.462, 2.728e-6
0.484, 2.272e-6
0.430, 1.287e-6
0.376, 7.621e-7
0.322, 4.328e-7
0.268, 2.042e-7
0.214, 1.550e-8
0.160, -1.841e-7
0.106, -4.162e-7
0.052, -6.883e-7
-0.002, -1.002e-6
-0.056, -1.357e-6
-0.110, -1.711e-6
-0.164, -2.080e-6
-0.218, -2.452e-6
-0.272, -2.827e-6
-0.274, -2.020e-6
-0.220, -1.062e-6
-0.166, -5.511e-7
-0.112, -2.487e-7
-0.058, -5.182e-8
-0.004, 8.870e-8
0.050, 2.134e-7
0.104, 4.306e-7
0.158, 5.536e-7
0.212, 8.216e-7
0.266, 1.167e-6
0.320, 1.576e-6
0.374, 2.002e-6
0.428, 2.400e-6
0.482, 2.714e-6
0.464, 1.747e-6
0.410, 1.017e-6
0.356, 5.944e-7
0.302, 3.221e-7
0.248, 1.214e-7
0.194, -5.596e-8
0.140, -2.501e-7
0.086, -4.752e-7
0.032, -7.369e-7
-0.022, -1.057e-6
-0.076, -1.386e-6
-0.130, -1.735e-6
-0.184, -2.105e-6
-0.238, -2.485e-6
-0.292, -2.889e-6
-0.254, -1.526e-6
-0.200, -8.042e-7
-0.146, -3.999e-7
-0.092, -1.539e-7
-0.038, 9.673e-9
0.016, 1.320e-7
0.070, 2.491e-7
0.124, 4.048e-7
0.178, 5.960e-7
0.232, 8.741e-7
0.286, 1.225e-6
0.340, 1.631e-6
0.394, 2.042e-6
0.448, 2.416e-6
0.498, 2.543e-6
0.444, 1.362e-6
0.390, 7.992e-7
0.336, 4.570e-7
0.282, 2.262e-7
0.228, 4.827e-8
0.174, -1.220e-7
0.120, -3.104e-7
0.066, -5.286e-7
0.012, -7.827e-7
-0.042, -1.104e-6
-0.096, -1.421e-6
-0.150, -1.771e-6
-0.204, -2.143e-6
-0.258, -2.540e-6
-0.288, -2.284e-6
-0.234, -1.163e-6
-0.180, -6.020e-7
-0.126, -2.783e-7
-0.072, -7.628e-8
-0.018, 6.030e-8
0.036, 1.694e-7
0.090, 3.317e-7
0.144, 4.340e-7
0.198, 6.436e-7
0.252, 9.308e-7
0.306, 1.288e-6
0.360, 1.687e-6
0.414, 2.082e-6
0.468, 2.430e-6
0.478, 1.881e-6
0.424, 1.069e-6
0.370, 6.228e-7
0.316, 3.415e-7
0.262, 1.445e-7
0.208, -1.774e-8
0.154, -1.817e-7
0.100, -3.651e-7
0.046, -5.785e-7
-0.008, -8.348e-7
-0.062, -1.145e-6
-0.116, -1.455e-6
-0.170, -1.815e-6
-0.224, -2.197e-6
-0.278, -2.612e-6
-0.268, -1.701e-6
-0.214, -8.826e-7
-0.160, -4.412e-7
-0.106, -1.804e-7
-0.052, -1.362e-8
0.002, 1.031e-7
0.056, 2.023e-7
0.110, 3.753e-7
0.164, 4.732e-7
0.218, 6.945e-7
0.272, 9.917e-7
0.326, 1.351e-6
0.380, 1.743e-6
0.434, 2.120e-6
0.488, 2.443e-6
0.458, 1.449e-6
0.404, 8.384e-7
0.350, 4.800e-7
0.296, 2.457e-7
0.242, 7.325e-8
0.188, -7.745e-8
0.134, -2.357e-7
0.080, -4.151e-7
0.026, -6.249e-7
-0.028, -9.051e-7
-0.082, -1.178e-6
-0.136, -1.500e-6
-0.190, -1.867e-6
-0.244, -2.261e-6
-0.298, -2.708e-6
-0.248, -1.284e-6
-0.194, -6.619e-7
-0.140, -3.124e-7
-0.086, -1.012e-7
-0.032, 3.738e-8
0.022, 1.386e-7
0.076, 2.336e-7
0.130, 3.545e-7
0.184, 5.163e-7
0.238, 7.522e-7
0.292, 1.060e-6
0.346, 1.421e-6
0.400, 1.805e-6
0.454, 2.164e-6
0.492, 2.075e-6
0.438, 1.136e-6
0.384, 6.577e-7
0.330, 3.646e-7
0.276, 1.662e-7
0.222, 1.209e-8
0.168, -1.329e-7
0.114, -2.869e-7
0.060, -4.643e-7
0.006, -6.746e-7
-0.048, -9.465e-7
-0.102, -1.236e-6
-0.156, -1.561e-6
-0.210, -1.937e-6
-0.264, -2.348e-6
-0.282, -1.927e-6
-0.228, -9.766e-7
-0.174, -4.905e-7
-0.120, -2.107e-7
-0.066, -3.577e-8
-0.012, 7.966e-8
0.042, 1.703e-7
0.096, 3.344e-7
0.150, 3.887e-7
0.204, 5.666e-7
0.258, 8.165e-7
0.312, 1.134e-6
0.366, 1.499e-6
0.420, 1.873e-6
0.474, 2.213e-6
0.472, 1.579e-6
0.418, 8.965e-7
0.364, 5.143e-7
0.310, 2.708e-7
0.256, 9.742e-8
0.202, -4.509e-8
0.148, -1.839e-7
0.094, -3.362e-7
0.040, -5.136e-7
-0.014, -7.376e-7
-0.068, -1.000e-6
-0.122, -1.290e-6
-0.176, -1.634e-6
-0.230, -2.019e-6
-0.284, -2.459e-6
-0.262, -1.445e-6
-0.208, -7.378e-7
-0.154, -3.544e-7
-0.100, -1.271e-7
-0.046, 1.638e-8
0.008, 1.154e-7
0.062, 1.988e-7
0.116, 3.208e-7
0.170, 4.281e-7
0.224, 6.221e-7
0.278, 8.878e-7
0.332, 1.215e-6
0.386, 1.578e-6
0.440, 1.939e-6
0.494, 2.259e-6
0.452, 1.230e-6
0.398, 7.071e-7
0.344, 3.948e-7
0.290, 1.898e-7
0.236, 3.724e-8
0.182, -9.668e-8
0.128, -2.322e-7
0.074, -3.840e-7
0.020, -5.630e-7
-0.034, -8.086e-7
-0.088, -1.066e-6
-0.142, -1.359e-6
-0.196, -1.716e-6
-0.250, -2.115e-6
-0.296, -2.270e-6
-0.242, -1.096e-6
-0.188, -5.508e-7
-0.134, -2.454e-7
-0.080, -5.966e-8
-0.026, 5.953e-8
0.028, 1.457e-7
0.082, 2.378e-7
0.136, 3.286e-7
0.190, 4.720e-7
0.244, 6.807e-7
0.298, 9.593e-7
0.352, 1.292e-6
0.406, 1.651e-6
0.460, 1.996e-6
0.486, 1.749e-6
0.432, 9.639e-7
0.378, 5.507e-7
0.324, 2.957e-7
0.270, 1.195e-7
0.216, -1.704e-8
0.162, -1.444e-7
0.108, -2.766e-7
0.054, -4.282e-7
0.000, -6.144e-7
-0.054, -8.526e-7
-0.108, -1.116e-6
-0.162, -1.431e-6
-0.216, -1.798e-6
-0.270, -2.222e-6
-0.276, -1.646e-6
-0.222, -8.277e-7
-0.168, -4.031e-7
-0.114, -1.571e-7
-0.060, -4.998e-9
-0.006, 9.496e-8
0.048, 1.729e-7
0.102, 3.275e-7
0.156, 3.614e-7
0.210, 5.200e-7
0.264, 7.449e-7
0.318, 1.035e-6
0.372, 1.370e-6
0.426, 1.724e-6
0.480, 2.053e-6
0.466, 1.340e-6
0.412, 7.587e-7
0.358, 4.257e-7
0.304, 2.122e-7
0.250, 5.996e-8
0.196, -6.583e-8
0.142, -1.885e-7
0.088, -3.204e-7
0.034, -4.735e-7
-0.020, -6.824e-7
-0.074, -9.111e-7
-0.128, -1.182e-6
-0.182, -1.511e-6
-0.236, -1.896e-6
-0.290, -2.351e-6
-0.256, -1.239e-6
-0.202, -6.208e-7
-0.148, -2.844e-7
-0.094, -8.549e-8
-0.040, 4.013e-8
0.014, 1.260e-7
0.068, 1.981e-7
0.122, 2.916e-7
0.176, 3.992e-7
0.230, 5.739e-7
0.284, 8.146e-7
0.338, 1.115e-6
0.392, 1.452e-6
0.446, 1.797e-6
0.500, 2.093e-6
0.446, 1.047e-6
0.392, 5.946e-7
0.338, 3.237e-7
0.284, 1.422e-7
0.230, 6.840e-9
0.176, -1.123e-7
0.122, -2.307e-7
0.068, -3.628e-7
0.014, -5.199e-7
-0.040, -7.400e-7
-0.094, -9.722e-7
-0.148, -1.254e-6
-0.202, -1.599e-6
-0.256, -2.003e-6
-0.290, -1.923e-6
-0.236, -9.363e-7
-0.182, -4.593e-7
-0.128, -1.897e-7
-0.074, -2.661e-8
-0.020, 7.703e-8
0.034, 1.526e-7
0.088, 2.704e-7
0.142, 3.142e-7
0.196, 4.419e-7
0.250, 6.319e-7
0.304, 8.879e-7
0.358, 1.196e-6
0.412, 1.535e-6
0.466, 1.868e-6
0.480, 1.491e-6
0.426, 8.244e-7
0.372, 4.640e-7
0.318, 2.385e-7
0.264, 8.209e-8
0.210, -4.014e-8
0.156, -1.542e-7
0.102, -2.721e-7
0.048, -4.056e-7
-0.006, -5.729e-7
-0.060, -7.920e-7
-0.114, -1.034e-6
-0.168, -1.336e-6
-0.222, -1.699e-6
-0.276, -2.131e-6
-0.270, -1.419e-6
-0.216, -7.052e-7
-0.162, -3.307e-7
-0.108, -1.145e-7
-0.054, 2.032e-8
-0.000, 1.095e-7
0.054, 1.770e-7
0.108, 3.073e-7
0.162, 3.450e-7
0.216, 4.903e-7
0.270, 6.972e-7
0.324, 9.673e-7
0.378, 1.282e-6
0.432, 1.618e-6
0.486, 1.937e-6
0.460, 1.153e-6
0.406, 6.485e-7
0.352, 3.561e-7
0.298, 1.669e-7
0.244, 3.010e-8
0.190, -8.467e-8
0.136, -1.943e-7
0.082, -3.121e-7
0.028, -4.497e-7
-0.026, -6.479e-7
-0.080, -8.486e-7
-0.134, -1.106e-6
-0.188, -1.427e-6
-0.242, -1.809e-6
-0.296, -2.281e-6
-0.250, -1.071e-6
-0.196, -5.258e-7
-0.142, -2.286e-7
-0.088, -5.131e-8
-0.034, 5.991e-8
0.020, 1.353e-7
0.074, 1.996e-7
0.128, 2.800e-7
0.182, 3.829e-7
0.236, 5.441e-7
0.290, 7.687e-7
0.344, 1.050e-6
0.398, 1.369e-6
0.452, 1.701e-6
0.494, 1.712e-6
0.440, 9.060e-7
0.386, 5.086e-7
0.332, 2.681e-7
0.278, 1.051e-7
0.224, -1.717e-8
0.170, -1.259e-7
0.116, -2.333e-7
0.062, -3.541e-7
0.008, -4.964e-7
-0.046, -7.072e-7
-0.100, -9.120e-7
-0.154, -1.189e-6
-0.208, -1.526e-6
-0.262, -1.933e-6
-0.284, -1.660e-6
-0.230, -8.075e-7
-0.176, -3.855e-7
-0.122, -1.458e-7
-0.068, -9.565e-10
-0.014, 9.201e-8
0.040, 1.595e-7
0.094, 2.943e-7
0.148, 3.052e-7
0.202, 4.244e-7
0.256, 6.025e-7
0.310, 8.423e-7
0.364, 1.132e-6
0.418, 1.454e-6
0.472, 1.777e-6
0.474, 1.289e-6
0.420, 7.130e-7
0.366, 3.936e-7
0.312, 1.941e-7
0.258, 5.182e-8
0.204, -6.004e-8
0.150, -1.639e-7
0.096, -2.710e-7
0.042, -3.932e-7
-0.012, -5.542e-7
-0.066, -7.493e-7
-0.120, -9.799e-7
-0.174, -1.274e-6
-0.228, -1.631e-6
-0.282, -2.073e-6
-0.264, -1.235e-6
-0.210, -6.052e-7
-0.156, -2.723e-7
-0.102, -7.755e-8
-0.048, 4.089e-8
0.006, 1.196e-7
0.060, 1.813e-7
0.114, 2.729e-7
0.168, 3.355e-7
0.222, 4.724e-7
0.276, 6.665e-7
0.330, 9.210e-7
0.384, 1.220e-6
0.438, 1.541e-6
0.492, 1.851e-6
0.454, 1.003e-6
0.400, 5.599e-7
0.346, 3.003e-7
0.292, 1.293e-7
0.238, 5.146e-9
0.184, -1.005e-7
0.130, -2.008e-7
0.076, -3.089e-7
0.022, -4.356e-7
-0.032, -6.207e-7
-0.086, -8.184e-7
-0.140, -1.057e-6
-0.194, -1.370e-6
-0.248, -1.750e-6
-0.298, -2.035e-6
-0.244, -9.305e-7
-0.190, -4.478e-7
-0.136, -1.821e-7
-0.082, -2.353e-8
-0.028, 7.511e-8
0.026, 1.439e-7
0.080, 2.100e-7
0.134, 2.746e-7
0.188, 3.728e-7
0.242, 5.246e-7
0.296, 7.373e-7
0.350, 1.004e-6
0.404, 1.309e-6
0.458, 1.627e-6
0.488, 1.472e-6
0.434, 7.893e-7
0.380, 4.377e-7
0.326, 2.224e-7
0.272, 7.469e-8
0.218, -3.687e-8
0.164, -1.375e-7
0.110, -2.368e-7
0.056, -3.473e-7
0.002, -4.824e-7
-0.052, -6.671e-7
-0.106, -8.726e-7
-0.160, -1.142e-6
-0.214, -1.474e-6
-0.268, -1.886e-6
-0.278, -1.445e-6
-0.224, -7.003e-7
-0.170, -3.233e-7
-0.116, -1.095e-7
-0.062, 2.113e-8
-0.008, 1.043e-7
0.046, 1.658e-7
0.100, 2.985e-7
0.154, 3.014e-7
0.208, 4.152e-7
0.262, 5.844e-7
0.316, 8.141e-7
0.370, 1.092e-6
0.424, 1.401e-6
0.478, 1.712e-6
0.468, 1.129e-6
0.414, 6.228e-7
0.360, 3.380e-7
0.306, 1.562e-7
0.252, 2.781e-8
0.198, -7.609e-8
0.144, -1.730e-7
0.090, -2.729e-7
0.036, -3.874e-7
-0.018, -5.464e-7
-0.072, -7.247e-7
-0.126, -9.485e-7
-0.180, -1.234e-6
-0.234, -1.588e-6
-0.288, -2.041e-6
-0.258, -1.083e-6
-0.204, -5.220e-7
-0.150, -2.240e-7
-0.096, -4.928e-8
-0.042, 5.815e-8
0.012, 1.295e-7
0.066, 1.856e-7
0.120, 2.563e-7
0.174, 3.316e-7
0.228, 4.626e-7
0.282, 6.492e-7
0.336, 8.940e-7
0.390, 1.181e-6
0.444, 1.490e-6
0.498, 1.792e-6
0.448, 8.838e-7
0.394, 4.891e-7
0.340, 2.557e-7
0.286, 9.924e-8
0.232, -1.535e-8
0.178, -1.141e-7
0.124, -2.083e-7
0.070, -3.093e-7
0.016, -4.293e-7
-0.038, -6.086e-7
-0.092, -7.947e-7
-0.146, -1.026e-6
-0.200, -1.334e-6
-0.254, -1.717e-6
-0.292, -1.735e-6
-0.238, -8.139e-7
-0.184, -3.833e-7
-0.130, -1.439e-7
-0.076, -7.386e-10
-0.022, 8.874e-8
0.032, 1.510e-7
0.086, 2.458e-7
0.140, 2.740e-7
0.194, 3.688e-7
0.248, 5.153e-7
0.302, 7.207e-7
0.356, 9.776e-7
0.410, 1.272e-6
0.464, 1.579e-6
0.482, 1.290e-6
0.428, 6.957e-7
0.374, 3.809e-7
0.320, 1.853e-7
0.266, 5.010e-8
0.212, -5.418e-8
0.158, -1.488e-7
0.104, -2.422e-7
0.050, -3.470e-7
-0.004, -4.780e-7
-0.058, -6.546e-7
-0.112, -8.510e-7
-0.166, -1.114e-6
-0.220, -1.443e-6
-0.274, -1.861e-6
-0.298, -2.090e-6