File: Data/2022-03-23 MQ HCF/CV-Carbon-CuHCF-3.txt
Mar. 22, 2022   20:19:18
Cyclic Voltammetry
File: d:\mq\20220322-pba stability\cv-carbon-cuhcf-3.txt
Data Source:  Experiment
Instrument Model:  CHI840D
Header:
Note:

Init E (V) = 0.2
High E (V) = 1.1
Low E (V) = 0.2
Init P/N = P
Scan Rate (V/s) = 0.05
Segment = 100
Sample Interval (V) = 0.001
Quiet Time (sec) = 2
Sensitivity (A/V) = 1e-5

Segment 1:
Ep = 0.713V
ip = 5.862e-6A
Ah = 1.407e-5C

Segment 2:

Segment 3:
Ep = 0.718V
ip = 5.921e-6A
Ah = 1.452e-5C

Segment 4:

Segment 5:
Ep = 0.721V
ip = 5.749e-6A
Ah = 1.439e-5C

Segment 6:

Segment 7:
Ep = 0.723V
ip = 5.523e-6A
Ah = 1.406e-5C

Segment 8:

Segment 9:
Ep = 0.724V
ip = 5.309e-6A
Ah = 1.364e-5C

Segment 10:

Segment 11:

Segment 12:

Segment 13:

Segment 14:

Segment 15:

Segment 16:

Segment 17:

Segment 18:

Segment 19:

Segment 20:

Segment 21:

Segment 22:

Segment 23:

Segment 24:

Segment 25:

Segment 26:

Segment 27:

Segment 28:

Segment 29:

Segment 30:

Segment 31:

Segment 32:

Segment 33:

Segment 34:

Segment 35:
Ep = 0.709V
ip = 3.142e-6A
Ah = 8.058e-6C

Segment 36:

Segment 37:
Ep = 0.708V
ip = 3.027e-6A
Ah = 7.768e-6C

Segment 38:

Segment 39:
Ep = 0.707V
ip = 2.900e-6A
Ah = 7.434e-6C

Segment 40:

Segment 41:
Ep = 0.705V
ip = 2.800e-6A
Ah = 7.097e-6C

Segment 42:

Segment 43:
Ep = 0.705V
ip = 2.699e-6A
Ah = 6.892e-6C

Segment 44:

Segment 45:
Ep = 0.703V
ip = 2.618e-6A
Ah = 6.602e-6C

Segment 46:

Segment 47:
Ep = 0.702V
ip = 2.539e-6A
Ah = 6.379e-6C

Segment 48:

Segment 49:
Ep = 0.702V
ip = 2.461e-6A
Ah = 6.218e-6C

Segment 50:

Segment 51:
Ep = 0.701V
ip = 2.387e-6A
Ah = 6.006e-6C

Segment 52:

Segment 53:
Ep = 0.700V
ip = 2.300e-6A
Ah = 5.761e-6C

Segment 54:

Segment 55:
Ep = 0.699V
ip = 2.236e-6A
Ah = 5.569e-6C

Segment 56:

Segment 57:
Ep = 0.699V
ip = 2.154e-6A
Ah = 5.391e-6C

Segment 58:

Segment 59:
Ep = 0.699V
ip = 2.045e-6A
Ah = 5.150e-6C

Segment 60:

Segment 61:
Ep = 0.698V
ip = 1.957e-6A
Ah = 4.911e-6C

Segment 62:

Segment 63:
Ep = 0.697V
ip = 1.876e-6A
Ah = 4.690e-6C

Segment 64:

Segment 65:
Ep = 0.696V
ip = 1.783e-6A
Ah = 4.438e-6C

Segment 66:
Ep = 0.539V
ip = -6.941e-7A
Ah = -1.787e-6C

Segment 67:
Ep = 0.696V
ip = 1.708e-6A
Ah = 4.269e-6C

Segment 68:
Ep = 0.540V
ip = -6.706e-7A
Ah = -1.711e-6C

Segment 69:
Ep = 0.695V
ip = 1.624e-6A
Ah = 4.036e-6C

Segment 70:
Ep = 0.541V
ip = -6.451e-7A
Ah = -1.632e-6C

Segment 71:
Ep = 0.694V
ip = 1.551e-6A
Ah = 3.834e-6C

Segment 72:
Ep = 0.541V
ip = -6.201e-7A
Ah = -1.576e-6C

Segment 73:
Ep = 0.694V
ip = 1.461e-6A
Ah = 3.631e-6C

Segment 74:
Ep = 0.541V
ip = -5.862e-7A
Ah = -1.499e-6C

Segment 75:
Ep = 0.694V
ip = 1.386e-6A
Ah = 3.458e-6C

Segment 76:
Ep = 0.542V
ip = -5.644e-7A
Ah = -1.427e-6C

Segment 77:
Ep = 0.693V
ip = 1.305e-6A
Ah = 3.239e-6C

Segment 78:
Ep = 0.543V
ip = -5.365e-7A
Ah = -1.340e-6C

Segment 79:
Ep = 0.693V
ip = 1.235e-6A
Ah = 3.076e-6C

Segment 80:
Ep = 0.543V
ip = -5.110e-7A
Ah = -1.281e-6C

Segment 81:
Ep = 0.693V
ip = 1.158e-6A
Ah = 2.898e-6C

Segment 82:
Ep = 0.543V
ip = -4.814e-7A
Ah = -1.211e-6C

Segment 83:
Ep = 0.692V
ip = 1.089e-6A
Ah = 2.707e-6C

Segment 84:
Ep = 0.544V
ip = -4.550e-7A
Ah = -1.132e-6C

Segment 85:
Ep = 0.693V
ip = 1.023e-6A
Ah = 2.576e-6C

Segment 86:
Ep = 0.544V
ip = -4.341e-7A
Ah = -1.085e-6C

Segment 87:
Ep = 0.692V
ip = 9.638e-7A
Ah = 2.409e-6C

Segment 88:
Ep = 0.544V
ip = -4.094e-7A
Ah = -1.027e-6C

Segment 89:
Ep = 0.692V
ip = 9.028e-7A
Ah = 2.262e-6C

Segment 90:
Ep = 0.545V
ip = -3.882e-7A
Ah = -9.608e-7C

Segment 91:
Ep = 0.692V
ip = 8.457e-7A
Ah = 2.123e-6C

Segment 92:
Ep = 0.545V
ip = -3.707e-7A
Ah = -9.224e-7C

Segment 93:
Ep = 0.692V
ip = 7.902e-7A
Ah = 1.989e-6C

Segment 94:
Ep = 0.546V
ip = -3.511e-7A
Ah = -8.579e-7C

Segment 95:
Ep = 0.692V
ip = 7.342e-7A
Ah = 1.852e-6C

Segment 96:
Ep = 0.546V
ip = -3.255e-7A
Ah = -7.954e-7C

Segment 97:
Ep = 0.692V
ip = 6.772e-7A
Ah = 1.714e-6C

Segment 98:
Ep = 0.547V
ip = -3.026e-7A
Ah = -7.285e-7C

Segment 99:
Ep = 0.693V
ip = 6.242e-7A
Ah = 1.596e-6C

Segment 100:
Ep = 0.546V
ip = -2.780e-7A
Ah = -6.790e-7C

Potential/V, Current/A

0.200, -5.215e-7
0.260, -1.687e-7
0.320, -2.950e-8
0.380, 1.980e-7
0.440, 6.612e-7
0.500, 1.610e-6
0.560, 3.748e-6
0.620, 7.095e-6
0.680, 9.818e-6
0.740, 9.939e-6
0.800, 6.614e-6
0.860, 3.028e-6
0.920, 1.847e-6
0.980, 1.369e-6
1.040, 1.229e-6
1.100, 1.321e-6
1.040, 5.227e-7
0.980, 2.270e-7
0.920, -1.364e-7
0.860, -7.658e-7
0.800, -1.748e-6
0.740, -3.187e-6
0.680, -4.912e-6
0.620, -6.700e-6
0.560, -8.525e-6
0.500, -9.742e-6
0.440, -5.442e-6
0.380, -1.721e-6
0.320, -9.150e-7
0.260, -6.403e-7
0.200, -5.365e-7
0.260, -1.546e-7
0.320, -4.151e-8
0.380, 1.523e-7
0.440, 5.568e-7
0.500, 1.477e-6
0.560, 3.618e-6
0.620, 6.966e-6
0.680, 9.790e-6
0.740, 1.016e-5
0.800, 6.973e-6
0.860, 3.209e-6
0.920, 1.837e-6
0.980, 1.265e-6
1.040, 1.071e-6
1.100, 1.137e-6
1.040, 3.965e-7
0.980, 1.340e-7
0.920, -1.971e-7
0.860, -7.897e-7
0.800, -1.725e-6
0.740, -3.119e-6
0.680, -4.825e-6
0.620, -6.604e-6
0.560, -8.373e-6
0.500, -9.534e-6
0.440, -5.635e-6
0.380, -1.993e-6
0.320, -1.071e-6
0.260, -7.408e-7
0.200, -6.121e-7
0.260, -1.889e-7
0.320, -6.890e-8
0.380, 1.137e-7
0.440, 4.860e-7
0.500, 1.382e-6
0.560, 3.498e-6
0.620, 6.797e-6
0.680, 9.590e-6
0.740, 1.009e-5
0.800, 7.125e-6
0.860, 3.359e-6
0.920, 1.876e-6
0.980, 1.240e-6
1.040, 1.007e-6
1.100, 1.049e-6
1.040, 3.347e-7
0.980, 8.967e-8
0.920, -2.219e-7
0.860, -7.879e-7
0.800, -1.682e-6
0.740, -3.029e-6
0.680, -4.703e-6
0.620, -6.475e-6
0.560, -8.193e-6
0.500, -9.284e-6
0.440, -5.636e-6
0.380, -2.169e-6
0.320, -1.189e-6
0.260, -8.210e-7
0.200, -6.726e-7
0.260, -2.171e-7
0.320, -9.181e-8
0.380, 8.366e-8
0.440, 4.332e-7
0.500, 1.305e-6
0.560, 3.380e-6
0.620, 6.609e-6
0.680, 9.328e-6
0.740, 9.892e-6
0.800, 7.148e-6
0.860, 3.471e-6
0.920, 1.920e-6
0.980, 1.241e-6
1.040, 9.786e-7
1.100, 1.000e-6
1.040, 3.020e-7
0.980, 6.708e-8
0.920, -2.303e-7
0.860, -7.722e-7
0.800, -1.628e-6
0.740, -2.929e-6
0.680, -4.565e-6
0.620, -6.323e-6
0.560, -7.993e-6
0.500, -9.004e-6
0.440, -5.538e-6
0.380, -2.287e-6
0.320, -1.280e-6
0.260, -8.889e-7
0.200, -7.244e-7
0.260, -2.421e-7
0.320, -1.113e-7
0.380, 5.863e-8
0.440, 3.888e-7
0.500, 1.233e-6
0.560, 3.255e-6
0.620, 6.396e-6
0.680, 9.021e-6
0.740, 9.612e-6
0.800, 7.084e-6
0.860, 3.561e-6
0.920, 1.975e-6
0.980, 1.260e-6
1.040, 9.746e-7
1.100, 9.788e-7
1.040, 2.870e-7
0.980, 5.861e-8
0.920, -2.269e-7
0.860, -7.461e-7
0.800, -1.564e-6
0.740, -2.815e-6
0.680, -4.406e-6
0.620, -6.139e-6
0.560, -7.756e-6
0.500, -8.680e-6
0.440, -5.375e-6
0.380, -2.364e-6
0.320, -1.356e-6
0.260, -9.484e-7
0.200, -7.711e-7
0.260, -2.644e-7
0.320, -1.288e-7
0.380, 3.554e-8
0.440, 3.482e-7
0.500, 1.162e-6
0.560, 3.120e-6
0.620, 6.156e-6
0.680, 8.658e-6
0.740, 9.234e-6
0.800, 6.927e-6
0.860, 3.631e-6
0.920, 2.039e-6
0.980, 1.295e-6
1.040, 9.878e-7
1.100, 9.748e-7
1.040, 2.816e-7
0.980, 5.748e-8
0.920, -2.167e-7
0.860, -7.113e-7
0.800, -1.488e-6
0.740, -2.684e-6
0.680, -4.220e-6
0.620, -5.917e-6
0.560, -7.476e-6
0.500, -8.304e-6
0.440, -5.161e-6
0.380, -2.413e-6
0.320, -1.423e-6
0.260, -1.005e-6
0.200, -8.184e-7
0.260, -2.875e-7
0.320, -1.474e-7
0.380, 1.206e-8
0.440, 3.089e-7
0.500, 1.088e-6
0.560, 2.975e-6
0.620, 5.895e-6
0.680, 8.250e-6
0.740, 8.781e-6
0.800, 6.682e-6
0.860, 3.666e-6
0.920, 2.100e-6
0.980, 1.336e-6
1.040, 1.012e-6
1.100, 9.820e-7
1.040, 2.828e-7
0.980, 6.113e-8
0.920, -2.034e-7
0.860, -6.730e-7
0.800, -1.408e-6
0.740, -2.546e-6
0.680, -4.019e-6
0.620, -5.671e-6
0.560, -7.170e-6
0.500, -7.899e-6
0.440, -4.926e-6
0.380, -2.435e-6
0.320, -1.477e-6
0.260, -1.055e-6
0.200, -8.639e-7
0.260, -3.096e-7
0.320, -1.649e-7
0.380, -1.092e-8
0.440, 2.715e-7
0.500, 1.018e-6
0.560, 2.834e-6
0.620, 5.635e-6
0.680, 7.838e-6
0.740, 8.302e-6
0.800, 6.387e-6
0.860, 3.659e-6
0.920, 2.147e-6
0.980, 1.375e-6
1.040, 1.036e-6
1.100, 9.938e-7
1.040, 2.865e-7
0.980, 6.598e-8
0.920, -1.893e-7
0.860, -6.365e-7
0.800, -1.333e-6
0.740, -2.414e-6
0.680, -3.826e-6
0.620, -5.427e-6
0.560, -6.865e-6
0.500, -7.503e-6
0.440, -4.694e-6
0.380, -2.435e-6
0.320, -1.513e-6
0.260, -1.095e-6
0.200, -9.019e-7
0.260, -3.269e-7
0.320, -1.794e-7
0.380, -3.015e-8
0.440, 2.386e-7
0.500, 9.538e-7
0.560, 2.702e-6
0.620, 5.388e-6
0.680, 7.445e-6
0.740, 7.844e-6
0.800, 6.079e-6
0.860, 3.616e-6
0.920, 2.176e-6
0.980, 1.407e-6
1.040, 1.059e-6
1.100, 1.006e-6
1.040, 2.910e-7
0.980, 7.095e-8
0.920, -1.759e-7
0.860, -6.028e-7
0.800, -1.263e-6
0.740, -2.293e-6
0.680, -3.647e-6
0.620, -5.195e-6
0.560, -6.575e-6
0.500, -7.124e-6
0.440, -4.475e-6
0.380, -2.415e-6
0.320, -1.533e-6
0.260, -1.120e-6
0.200, -9.291e-7
0.260, -3.389e-7
0.320, -1.900e-7
0.380, -4.522e-8
0.440, 2.120e-7
0.500, 8.985e-7
0.560, 2.583e-6
0.620, 5.162e-6
0.680, 7.085e-6
0.740, 7.417e-6
0.800, 5.774e-6
0.860, 3.541e-6
0.920, 2.184e-6
0.980, 1.428e-6
1.040, 1.077e-6
1.100, 1.017e-6
1.040, 2.950e-7
0.980, 7.548e-8
0.920, -1.645e-7
0.860, -5.731e-7
0.800, -1.203e-6
0.740, -2.184e-6
0.680, -3.482e-6
0.620, -4.978e-6
0.560, -6.299e-6
0.500, -6.767e-6
0.440, -4.267e-6
0.380, -2.378e-6
0.320, -1.538e-6
0.260, -1.135e-6
0.200, -9.473e-7
0.260, -3.458e-7
0.320, -1.961e-7
0.380, -5.596e-8
0.440, 1.901e-7
0.500, 8.485e-7
0.560, 2.471e-6
0.620, 4.948e-6
0.680, 6.744e-6
0.740, 7.015e-6
0.800, 5.482e-6
0.860, 3.450e-6
0.920, 2.176e-6
0.980, 1.441e-6
1.040, 1.092e-6
1.100, 1.027e-6
1.040, 2.986e-7
0.980, 8.023e-8
0.920, -1.536e-7
0.860, -5.445e-7
0.800, -1.145e-6
0.740, -2.080e-6
0.680, -3.324e-6
0.620, -4.765e-6
0.560, -6.032e-6
0.500, -6.416e-6
0.440, -4.061e-6
0.380, -2.330e-6
0.320, -1.533e-6
0.260, -1.143e-6
0.200, -9.602e-7
0.260, -3.487e-7
0.320, -1.990e-7
0.380, -6.338e-8
0.440, 1.716e-7
0.500, 8.019e-7
0.560, 2.362e-6
0.620, 4.735e-6
0.680, 6.411e-6
0.740, 6.624e-6
0.800, 5.190e-6
0.860, 3.346e-6
0.920, 2.159e-6
0.980, 1.451e-6
1.040, 1.106e-6
1.100, 1.037e-6
1.040, 3.026e-7
0.980, 8.489e-8
0.920, -1.424e-7
0.860, -5.163e-7
0.800, -1.087e-6
0.740, -1.976e-6
0.680, -3.165e-6
0.620, -4.551e-6
0.560, -5.759e-6
0.500, -6.064e-6
0.440, -3.854e-6
0.380, -2.272e-6
0.320, -1.521e-6
0.260, -1.145e-6
0.200, -9.686e-7
0.260, -3.501e-7
0.320, -2.008e-7
0.380, -6.950e-8
0.440, 1.553e-7
0.500, 7.588e-7
0.560, 2.258e-6
0.620, 4.531e-6
0.680, 6.089e-6
0.740, 6.243e-6
0.800, 4.902e-6
0.860, 3.224e-6
0.920, 2.125e-6
0.980, 1.450e-6
1.040, 1.114e-6
1.100, 1.045e-6
1.040, 3.057e-7
0.980, 8.885e-8
0.920, -1.322e-7
0.860, -4.904e-7
0.800, -1.033e-6
0.740, -1.879e-6
0.680, -3.017e-6
0.620, -4.349e-6
0.560, -5.501e-6
0.500, -5.737e-6
0.440, -3.664e-6
0.380, -2.213e-6
0.320, -1.503e-6
0.260, -1.144e-6
0.200, -9.757e-7
0.260, -3.500e-7
0.320, -2.011e-7
0.380, -7.385e-8
0.440, 1.418e-7
0.500, 7.209e-7
0.560, 2.165e-6
0.620, 4.343e-6
0.680, 5.795e-6
0.740, 5.896e-6
0.800, 4.634e-6
0.860, 3.101e-6
0.920, 2.081e-6
0.980, 1.439e-6
1.040, 1.116e-6
1.100, 1.049e-6
1.040, 3.063e-7
0.980, 9.094e-8
0.920, -1.242e-7
0.860, -4.676e-7
0.800, -9.850e-7
0.740, -1.793e-6
0.680, -2.882e-6
0.620, -4.162e-6
0.560, -5.263e-6
0.500, -5.437e-6
0.440, -3.491e-6
0.380, -2.149e-6
0.320, -1.481e-6
0.260, -1.136e-6
0.200, -9.759e-7
0.260, -3.468e-7
0.320, -1.988e-7
0.380, -7.541e-8
0.440, 1.314e-7
0.500, 6.870e-7
0.560, 2.080e-6
0.620, 4.171e-6
0.680, 5.525e-6
0.740, 5.582e-6
0.800, 4.389e-6
0.860, 2.977e-6
0.920, 2.031e-6
0.980, 1.423e-6
1.040, 1.113e-6
1.100, 1.050e-6
1.040, 3.061e-7
0.980, 9.217e-8
0.920, -1.171e-7
0.860, -4.472e-7
0.800, -9.414e-7
0.740, -1.713e-6
0.680, -2.759e-6
0.620, -3.987e-6
0.560, -5.041e-6
0.500, -5.158e-6
0.440, -3.328e-6
0.380, -2.085e-6
0.320, -1.453e-6
0.260, -1.124e-6
0.200, -9.729e-7
0.260, -3.415e-7
0.320, -1.949e-7
0.380, -7.564e-8
0.440, 1.229e-7
0.500, 6.570e-7
0.560, 2.000e-6
0.620, 4.008e-6
0.680, 5.273e-6
0.740, 5.293e-6
0.800, 4.167e-6
0.860, 2.861e-6
0.920, 1.979e-6
0.980, 1.404e-6
1.040, 1.108e-6
1.100, 1.049e-6
1.040, 3.047e-7
0.980, 9.272e-8
0.920, -1.112e-7
0.860, -4.285e-7
0.800, -9.014e-7
0.740, -1.639e-6
0.680, -2.645e-6
0.620, -3.828e-6
0.560, -4.837e-6
0.500, -4.908e-6
0.440, -3.182e-6
0.380, -2.026e-6
0.320, -1.427e-6
0.260, -1.113e-6
0.200, -9.686e-7
0.260, -3.362e-7
0.320, -1.910e-7
0.380, -7.520e-8
0.440, 1.162e-7
0.500, 6.303e-7
0.560, 1.929e-6
0.620, 3.861e-6
0.680, 5.050e-6
0.740, 5.040e-6
0.800, 3.970e-6
0.860, 2.755e-6
0.920, 1.927e-6
0.980, 1.381e-6
1.040, 1.099e-6
1.100, 1.046e-6
1.040, 3.023e-7
0.980, 9.226e-8
0.920, -1.066e-7
0.860, -4.124e-7
0.800, -8.651e-7
0.740, -1.574e-6
0.680, -2.544e-6
0.620, -3.683e-6
0.560, -4.649e-6
0.500, -4.679e-6
0.440, -3.050e-6
0.380, -1.965e-6
0.320, -1.398e-6
0.260, -1.098e-6
0.200, -9.610e-7
0.260, -3.285e-7
0.320, -1.853e-7
0.380, -7.276e-8
0.440, 1.118e-7
0.500, 6.074e-7
0.560, 1.864e-6
0.620, 3.723e-6
0.680, 4.842e-6
0.740, 4.803e-6
0.800, 3.782e-6
0.860, 2.650e-6
0.920, 1.876e-6
0.980, 1.357e-6
1.040, 1.089e-6
1.100, 1.042e-6
1.040, 2.997e-7
0.980, 9.192e-8
0.920, -1.020e-7
0.860, -3.974e-7
0.800, -8.322e-7
0.740, -1.512e-6
0.680, -2.445e-6
0.620, -3.543e-6
0.560, -4.469e-6
0.500, -4.461e-6
0.440, -2.921e-6
0.380, -1.905e-6
0.320, -1.367e-6
0.260, -1.082e-6
0.200, -9.542e-7
0.260, -3.213e-7
0.320, -1.791e-7
0.380, -6.969e-8
0.440, 1.082e-7
0.500, 5.862e-7
0.560, 1.802e-6
0.620, 3.591e-6
0.680, 4.639e-6
0.740, 4.576e-6
0.800, 3.606e-6
0.860, 2.549e-6
0.920, 1.824e-6
0.980, 1.333e-6
1.040, 1.080e-6
1.100, 1.040e-6
1.040, 2.979e-7
0.980, 9.154e-8
0.920, -9.756e-8
0.860, -3.821e-7
0.800, -7.988e-7
0.740, -1.451e-6
0.680, -2.348e-6
0.620, -3.405e-6
0.560, -4.294e-6
0.500, -4.253e-6
0.440, -2.800e-6
0.380, -1.849e-6
0.320, -1.339e-6
0.260, -1.067e-6
0.200, -9.479e-7
0.260, -3.142e-7
0.320, -1.736e-7
0.380, -6.684e-8
0.440, 1.044e-7
0.500, 5.649e-7
0.560, 1.739e-6
0.620, 3.458e-6
0.680, 4.441e-6
0.740, 4.359e-6
0.800, 3.442e-6
0.860, 2.456e-6
0.920, 1.776e-6
0.980, 1.310e-6
1.040, 1.070e-6
1.100, 1.035e-6
1.040, 2.949e-7
0.980, 9.042e-8
0.920, -9.365e-8
0.860, -3.674e-7
0.800, -7.672e-7
0.740, -1.392e-6
0.680, -2.256e-6
0.620, -3.273e-6
0.560, -4.125e-6
0.500, -4.058e-6
0.440, -2.689e-6
0.380, -1.797e-6
0.320, -1.314e-6
0.260, -1.054e-6
0.200, -9.421e-7
0.260, -3.081e-7
0.320, -1.683e-7
0.380, -6.444e-8
0.440, 1.006e-7
0.500, 5.448e-7
0.560, 1.680e-6
0.620, 3.333e-6
0.680, 4.258e-6
0.740, 4.160e-6
0.800, 3.292e-6
0.860, 2.368e-6
0.920, 1.726e-6
0.980, 1.285e-6
1.040, 1.059e-6
1.100, 1.029e-6
1.040, 2.907e-7
0.980, 8.853e-8
0.920, -9.063e-8
0.860, -3.547e-7
0.800, -7.390e-7
0.740, -1.340e-6
0.680, -2.173e-6
0.620, -3.152e-6
0.560, -3.972e-6
0.500, -3.882e-6
0.440, -2.588e-6
0.380, -1.748e-6
0.320, -1.289e-6
0.260, -1.041e-6
0.200, -9.358e-7
0.260, -3.014e-7
0.320, -1.632e-7
0.380, -6.203e-8
0.440, 9.798e-8
0.500, 5.271e-7
0.560, 1.626e-6
0.620, 3.220e-6
0.680, 4.093e-6
0.740, 3.984e-6
0.800, 3.157e-6
0.860, 2.286e-6
0.920, 1.679e-6
0.980, 1.260e-6
1.040, 1.045e-6
1.100, 1.022e-6
1.040, 2.863e-7
0.980, 8.632e-8
0.920, -8.814e-8
0.860, -3.439e-7
0.800, -7.140e-7
0.740, -1.293e-6
0.680, -2.097e-6
0.620, -3.043e-6
0.560, -3.832e-6
0.500, -3.723e-6
0.440, -2.496e-6
0.380, -1.701e-6
0.320, -1.262e-6
0.260, -1.026e-6
0.200, -9.275e-7
0.260, -2.943e-7
0.320, -1.576e-7
0.380, -5.864e-8
0.440, 9.632e-8
0.500, 5.113e-7
0.560, 1.576e-6
0.620, 3.115e-6
0.680, 3.942e-6
0.740, 3.821e-6
0.800, 3.031e-6
0.860, 2.207e-6
0.920, 1.634e-6
0.980, 1.236e-6
1.040, 1.032e-6
1.100, 1.014e-6
1.040, 2.817e-7
0.980, 8.401e-8
0.920, -8.650e-8
0.860, -3.339e-7
0.800, -6.911e-7
0.740, -1.251e-6
0.680, -2.028e-6
0.620, -2.941e-6
0.560, -3.702e-6
0.500, -3.576e-6
0.440, -2.409e-6
0.380, -1.655e-6
0.320, -1.238e-6
0.260, -1.011e-6
0.200, -9.197e-7
0.260, -2.872e-7
0.320, -1.519e-7
0.380, -5.501e-8
0.440, 9.512e-8
0.500, 4.968e-7
0.560, 1.530e-6
0.620, 3.017e-6
0.680, 3.801e-6
0.740, 3.672e-6
0.800, 2.915e-6
0.860, 2.135e-6
0.920, 1.591e-6
0.980, 1.211e-6
1.040, 1.019e-6
1.100, 1.007e-6
1.040, 2.772e-7
0.980, 8.181e-8
0.920, -8.489e-8
0.860, -3.247e-7
0.800, -6.699e-7
0.740, -1.210e-6
0.680, -1.963e-6
0.620, -2.846e-6
0.560, -3.578e-6
0.500, -3.440e-6
0.440, -2.329e-6
0.380, -1.612e-6
0.320, -1.214e-6
0.260, -9.963e-7
0.200, -9.114e-7
0.260, -2.799e-7
0.320, -1.460e-7
0.380, -5.128e-8
0.440, 9.442e-8
0.500, 4.831e-7
0.560, 1.485e-6
0.620, 2.923e-6
0.680, 3.669e-6
0.740, 3.533e-6
0.800, 2.808e-6
0.860, 2.067e-6
0.920, 1.550e-6
0.980, 1.188e-6
1.040, 1.006e-6
1.100, 1.000e-6
1.040, 2.732e-7
0.980, 7.977e-8
0.920, -8.310e-8
0.860, -3.155e-7
0.800, -6.493e-7
0.740, -1.171e-6
0.680, -1.900e-6
0.620, -2.755e-6
0.560, -3.461e-6
0.500, -3.311e-6
0.440, -2.253e-6
0.380, -1.571e-6
0.320, -1.190e-6
0.260, -9.817e-7
0.200, -9.031e-7
0.260, -2.731e-7
0.320, -1.401e-7
0.380, -4.752e-8
0.440, 9.379e-8
0.500, 4.704e-7
0.560, 1.442e-6
0.620, 2.832e-6
0.680, 3.541e-6
0.740, 3.401e-6
0.800, 2.707e-6
0.860, 2.004e-6
0.920, 1.512e-6
0.980, 1.167e-6
1.040, 9.945e-7
1.100, 9.941e-7
1.040, 2.695e-7
0.980, 7.803e-8
0.920, -8.131e-8
0.860, -3.069e-7
0.800, -6.293e-7
0.740, -1.133e-6
0.680, -1.839e-6
0.620, -2.666e-6
0.560, -3.347e-6
0.500, -3.186e-6
0.440, -2.180e-6
0.380, -1.532e-6
0.320, -1.167e-6
0.260, -9.683e-7
0.200, -8.956e-7
0.260, -2.664e-7
0.320, -1.345e-7
0.380, -4.392e-8
0.440, 9.308e-8
0.500, 4.577e-7
0.560, 1.401e-6
0.620, 2.743e-6
0.680, 3.418e-6
0.740, 3.274e-6
0.800, 2.611e-6
0.860, 1.942e-6
0.920, 1.474e-6
0.980, 1.146e-6
1.040, 9.820e-7
1.100, 9.868e-7
1.040, 2.651e-7
0.980, 7.560e-8
0.920, -7.998e-8
0.860, -2.986e-7
0.800, -6.104e-7
0.740, -1.098e-6
0.680, -1.782e-6
0.620, -2.582e-6
0.560, -3.238e-6
0.500, -3.068e-6
0.440, -2.110e-6
0.380, -1.493e-6
0.320, -1.144e-6
0.260, -9.533e-7
0.200, -8.855e-7
0.260, -2.592e-7
0.320, -1.286e-7
0.380, -3.987e-8
0.440, 9.284e-8
0.500, 4.454e-7
0.560, 1.358e-6
0.620, 2.656e-6
0.680, 3.298e-6
0.740, 3.153e-6
0.800, 2.516e-6
0.860, 1.884e-6
0.920, 1.436e-6
0.980, 1.125e-6
1.040, 9.699e-7
1.100, 9.789e-7
1.040, 2.610e-7
0.980, 7.363e-8
0.920, -7.824e-8
0.860, -2.901e-7
0.800, -5.914e-7
0.740, -1.061e-6
0.680, -1.722e-6
0.620, -2.495e-6
0.560, -3.125e-6
0.500, -2.946e-6
0.440, -2.036e-6
0.380, -1.450e-6
0.320, -1.118e-6
0.260, -9.364e-7
0.200, -8.734e-7
0.260, -2.500e-7
0.320, -1.209e-7
0.380, -3.466e-8
0.440, 9.307e-8
0.500, 4.320e-7
0.560, 1.313e-6
0.620, 2.560e-6
0.680, 3.168e-6
0.740, 3.020e-6
0.800, 2.418e-6
0.860, 1.823e-6
0.920, 1.401e-6
0.980, 1.107e-6
1.040, 9.624e-7
1.100, 9.756e-7
1.040, 2.593e-7
0.980, 7.345e-8
0.920, -7.497e-8
0.860, -2.796e-7
0.800, -5.687e-7
0.740, -1.019e-6
0.680, -1.654e-6
0.620, -2.395e-6
0.560, -2.999e-6
0.500, -2.813e-6
0.440, -1.955e-6
0.380, -1.405e-6
0.320, -1.092e-6
0.260, -9.211e-7
0.200, -8.649e-7
0.260, -2.425e-7
0.320, -1.146e-7
0.380, -3.039e-8
0.440, 9.258e-8
0.500, 4.173e-7
0.560, 1.263e-6
0.620, 2.455e-6
0.680, 3.023e-6
0.740, 2.877e-6
0.800, 2.312e-6
0.860, 1.757e-6
0.920, 1.363e-6
0.980, 1.088e-6
1.040, 9.541e-7
1.100, 9.728e-7
1.040, 2.569e-7
0.980, 7.257e-8
0.920, -7.215e-8
0.860, -2.687e-7
0.800, -5.444e-7
0.740, -9.746e-7
0.680, -1.582e-6
0.620, -2.290e-6
0.560, -2.867e-6
0.500, -2.677e-6
0.440, -1.876e-6
0.380, -1.363e-6
0.320, -1.069e-6
0.260, -9.083e-7
0.200, -8.588e-7
0.260, -2.368e-7
0.320, -1.099e-7
0.380, -2.735e-8
0.440, 9.096e-8
0.500, 4.017e-7
0.560, 1.213e-6
0.620, 2.350e-6
0.680, 2.881e-6
0.740, 2.736e-6
0.800, 2.208e-6
0.860, 1.692e-6
0.920, 1.324e-6
0.980, 1.067e-6
1.040, 9.432e-7
1.100, 9.677e-7
1.040, 2.535e-7
0.980, 7.093e-8
0.920, -6.995e-8
0.860, -2.593e-7
0.800, -5.217e-7
0.740, -9.323e-7
0.680, -1.514e-6
0.620, -2.191e-6
0.560, -2.743e-6
0.500, -2.551e-6
0.440, -1.802e-6
0.380, -1.322e-6
0.320, -1.046e-6
0.260, -8.963e-7
0.200, -8.528e-7
0.260, -2.311e-7
0.320, -1.049e-7
0.380, -2.435e-8
0.440, 8.952e-8
0.500, 3.870e-7
0.560, 1.166e-6
0.620, 2.250e-6
0.680, 2.748e-6
0.740, 2.604e-6
0.800, 2.110e-6
0.860, 1.630e-6
0.920, 1.286e-6
0.980, 1.045e-6
1.040, 9.316e-7
1.100, 9.618e-7
1.040, 2.498e-7
0.980, 6.928e-8
0.920, -6.807e-8
0.860, -2.495e-7
0.800, -5.010e-7
0.740, -8.925e-7
0.680, -1.450e-6
0.620, -2.096e-6
0.560, -2.624e-6
0.500, -2.430e-6
0.440, -1.731e-6
0.380, -1.283e-6
0.320, -1.024e-6
0.260, -8.838e-7
0.200, -8.470e-7
0.260, -2.255e-7
0.320, -1.001e-7
0.380, -2.181e-8
0.440, 8.809e-8
0.500, 3.734e-7
0.560, 1.121e-6
0.620, 2.155e-6
0.680, 2.622e-6
0.740, 2.481e-6
0.800, 2.017e-6
0.860, 1.570e-6
0.920, 1.248e-6
0.980, 1.023e-6
1.040, 9.193e-7
1.100, 9.549e-7
1.040, 2.458e-7
0.980, 6.737e-8
0.920, -6.659e-8
0.860, -2.409e-7
0.800, -4.812e-7
0.740, -8.540e-7
0.680, -1.389e-6
0.620, -2.008e-6
0.560, -2.511e-6
0.500, -2.319e-6
0.440, -1.664e-6
0.380, -1.247e-6
0.320, -1.002e-6
0.260, -8.697e-7
0.200, -8.405e-7
0.260, -2.195e-7
0.320, -9.499e-8
0.380, -1.835e-8
0.440, 8.706e-8
0.500, 3.598e-7
0.560, 1.076e-6
0.620, 2.062e-6
0.680, 2.502e-6
0.740, 2.364e-6
0.800, 1.930e-6
0.860, 1.513e-6
0.920, 1.213e-6
0.980, 1.003e-6
1.040, 9.076e-7
1.100, 9.476e-7
1.040, 2.419e-7
0.980, 6.548e-8
0.920, -6.517e-8
0.860, -2.329e-7
0.800, -4.617e-7
0.740, -8.188e-7
0.680, -1.330e-6
0.620, -1.922e-6
0.560, -2.401e-6
0.500, -2.211e-6
0.440, -1.599e-6
0.380, -1.209e-6
0.320, -9.790e-7
0.260, -8.548e-7
0.200, -8.306e-7
0.260, -2.124e-7
0.320, -8.898e-8
0.380, -1.455e-8
0.440, 8.663e-8
0.500, 3.465e-7
0.560, 1.032e-6
0.620, 1.971e-6
0.680, 2.384e-6
0.740, 2.250e-6
0.800, 1.848e-6
0.860, 1.456e-6
0.920, 1.178e-6
0.980, 9.822e-7
1.040, 8.965e-7
1.100, 9.408e-7
1.040, 2.384e-7
0.980, 6.389e-8
0.920, -6.344e-8
0.860, -2.241e-7
0.800, -4.437e-7
0.740, -7.827e-7
0.680, -1.271e-6
0.620, -1.835e-6
0.560, -2.291e-6
0.500, -2.102e-6
0.440, -1.532e-6
0.380, -1.170e-6
0.320, -9.548e-7
0.260, -8.399e-7
0.200, -8.208e-7
0.260, -2.054e-7
0.320, -8.325e-8
0.380, -1.059e-8
0.440, 8.628e-8
0.500, 3.339e-7
0.560, 9.881e-7
0.620, 1.883e-6
0.680, 2.265e-6
0.740, 2.137e-6
0.800, 1.762e-6
0.860, 1.400e-6
0.920, 1.142e-6
0.980, 9.623e-7
1.040, 8.862e-7
1.100, 9.364e-7
1.040, 2.358e-7
0.980, 6.271e-8
0.920, -6.171e-8
0.860, -2.156e-7
0.800, -4.243e-7
0.740, -7.461e-7
0.680, -1.213e-6
0.620, -1.747e-6
0.560, -2.179e-6
0.500, -1.995e-6
0.440, -1.466e-6
0.380, -1.130e-6
0.320, -9.300e-7
0.260, -8.243e-7
0.200, -8.113e-7
0.260, -1.981e-7
0.320, -7.722e-8
0.380, -7.039e-9
0.440, 8.580e-8
0.500, 3.227e-7
0.560, 9.439e-7
0.620, 1.791e-6
0.680, 2.148e-6
0.740, 2.024e-6
0.800, 1.677e-6
0.860, 1.342e-6
0.920, 1.105e-6
0.980, 9.397e-7
1.040, 8.727e-7
1.100, 9.286e-7
1.040, 2.320e-7
0.980, 6.073e-8
0.920, -6.021e-8
0.860, -2.085e-7
0.800, -4.063e-7
0.740, -7.111e-7
0.680, -1.155e-6
0.620, -1.661e-6
0.560, -2.072e-6
0.500, -1.892e-6
0.440, -1.401e-6
0.380, -1.091e-6
0.320, -9.053e-7
0.260, -8.089e-7
0.200, -8.034e-7
0.260, -1.916e-7
0.320, -7.135e-8
0.380, -3.176e-9
0.440, 8.560e-8
0.500, 3.103e-7
0.560, 9.012e-7
0.620, 1.702e-6
0.680, 2.035e-6
0.740, 1.915e-6
0.800, 1.594e-6
0.860, 1.286e-6
0.920, 1.068e-6
0.980, 9.178e-7
1.040, 8.604e-7
1.100, 9.214e-7
1.040, 2.283e-7
0.980, 5.884e-8
0.920, -5.898e-8
0.860, -2.001e-7
0.800, -3.884e-7
0.740, -6.766e-7
0.680, -1.098e-6
0.620, -1.576e-6
0.560, -1.965e-6
0.500, -1.791e-6
0.440, -1.339e-6
0.380, -1.052e-6
0.320, -8.812e-7
0.260, -7.939e-7
0.200, -7.945e-7
0.260, -1.851e-7
0.320, -6.603e-8
0.380, 3.114e-10
0.440, 8.522e-8
0.500, 2.982e-7
0.560, 8.589e-7
0.620, 1.614e-6
0.680, 1.923e-6
0.740, 1.812e-6
0.800, 1.514e-6
0.860, 1.232e-6
0.920, 1.032e-6
0.980, 8.960e-7
1.040, 8.467e-7
1.100, 9.131e-7
1.040, 2.238e-7
0.980, 5.643e-8
0.920, -5.799e-8
0.860, -1.928e-7
0.800, -3.711e-7
0.740, -6.443e-7
0.680, -1.043e-6
0.620, -1.496e-6
0.560, -1.863e-6
0.500, -1.697e-6
0.440, -1.280e-6
0.380, -1.016e-6
0.320, -8.565e-7
0.260, -7.794e-7
0.200, -7.864e-7
0.260, -1.788e-7
0.320, -6.109e-8
0.380, 3.888e-9
0.440, 8.502e-8
0.500, 2.870e-7
0.560, 8.189e-7
0.620, 1.531e-6
0.680, 1.820e-6
0.740, 1.713e-6
0.800, 1.438e-6
0.860, 1.180e-6
0.920, 9.976e-7
0.980, 8.744e-7
1.040, 8.343e-7
1.100, 9.063e-7
1.040, 2.205e-7
0.980, 5.479e-8
0.920, -5.684e-8
0.860, -1.857e-7
0.800, -3.548e-7
0.740, -6.125e-7
0.680, -9.901e-7
0.620, -1.417e-6
0.560, -1.765e-6
0.500, -1.606e-6
0.440, -1.224e-6
0.380, -9.798e-7
0.320, -8.346e-7
0.260, -7.652e-7
0.200, -7.790e-7
0.260, -1.727e-7
0.320, -5.599e-8
0.380, 7.414e-9
0.440, 8.497e-8
0.500, 2.765e-7
0.560, 7.800e-7
0.620, 1.450e-6
0.680, 1.718e-6
0.740, 1.618e-6
0.800, 1.365e-6
0.860, 1.129e-6
0.920, 9.641e-7
0.980, 8.536e-7
1.040, 8.213e-7
1.100, 8.988e-7
1.040, 2.164e-7
0.980, 5.231e-8
0.920, -5.615e-8
0.860, -1.791e-7
0.800, -3.394e-7
0.740, -5.827e-7
0.680, -9.400e-7
0.620, -1.343e-6
0.560, -1.671e-6
0.500, -1.520e-6
0.440, -1.169e-6
0.380, -9.460e-7
0.320, -8.126e-7
0.260, -7.514e-7
0.200, -7.720e-7
0.260, -1.671e-7
0.320, -5.112e-8
0.380, 1.065e-8
0.440, 8.461e-8
0.500, 2.660e-7
0.560, 7.426e-7
0.620, 1.373e-6
0.680, 1.623e-6
0.740, 1.529e-6
0.800, 1.297e-6
0.860, 1.082e-6
0.920, 9.309e-7
0.980, 8.324e-7
1.040, 8.077e-7
1.100, 8.899e-7
1.040, 2.116e-7
0.980, 4.979e-8
0.920, -5.570e-8
0.860, -1.734e-7
0.800, -3.254e-7
0.740, -5.555e-7
0.680, -8.937e-7
0.620, -1.275e-6
0.560, -1.585e-6
0.500, -1.443e-6
0.440, -1.120e-6
0.380, -9.142e-7
0.320, -7.921e-7
0.260, -7.384e-7
0.200, -7.646e-7
0.260, -1.618e-7
0.320, -4.651e-8
0.380, 1.382e-8
0.440, 8.450e-8
0.500, 2.561e-7
0.560, 7.079e-7
0.620, 1.302e-6
0.680, 1.537e-6
0.740, 1.448e-6
0.800, 1.235e-6
0.860, 1.037e-6
0.920, 9.002e-7
0.980, 8.120e-7
1.040, 7.941e-7
1.100, 8.812e-7
1.040, 2.074e-7
0.980, 4.755e-8
0.920, -5.509e-8
0.860, -1.678e-7
0.800, -3.124e-7
0.740, -5.296e-7
0.680, -8.496e-7
0.620, -1.213e-6
0.560, -1.504e-6
0.500, -1.370e-6
0.440, -1.071e-6
0.380, -8.821e-7
0.320, -7.698e-7
0.260, -7.229e-7
0.200, -7.534e-7
0.260, -1.549e-7
0.320, -4.118e-8
0.380, 1.737e-8
0.440, 8.477e-8
0.500, 2.470e-7
0.560, 6.738e-7
0.620, 1.235e-6
0.680, 1.453e-6
0.740, 1.371e-6
0.800, 1.175e-6
0.860, 9.943e-7
0.920, 8.699e-7
0.980, 7.917e-7
1.040, 7.816e-7
1.100, 8.734e-7
1.040, 2.036e-7
0.980, 4.587e-8
0.920, -5.460e-8
0.860, -1.629e-7
0.800, -2.999e-7
0.740, -5.057e-7
0.680, -8.080e-7
0.620, -1.151e-6
0.560, -1.426e-6
0.500, -1.298e-6
0.440, -1.024e-6
0.380, -8.491e-7
0.320, -7.478e-7
0.260, -7.078e-7
0.200, -7.425e-7
0.260, -1.483e-7
0.320, -3.597e-8
0.380, 2.100e-8
0.440, 8.535e-8
0.500, 2.385e-7
0.560, 6.414e-7
0.620, 1.169e-6
0.680, 1.373e-6
0.740, 1.297e-6
0.800, 1.116e-6
0.860, 9.516e-7
0.920, 8.399e-7
0.980, 7.718e-7
1.040, 7.676e-7
1.100, 8.633e-7
1.040, 1.990e-7
0.980, 4.337e-8
0.920, -5.456e-8
0.860, -1.583e-7
0.800, -2.878e-7
0.740, -4.816e-7
0.680, -7.669e-7
0.620, -1.090e-6
0.560, -1.349e-6
0.500, -1.231e-6
0.440, -9.776e-7
0.380, -8.181e-7
0.320, -7.261e-7
0.260, -6.927e-7
0.200, -7.329e-7
0.260, -1.418e-7
0.320, -3.107e-8
0.380, 2.450e-8
0.440, 8.571e-8
0.500, 2.303e-7
0.560, 6.099e-7
0.620, 1.105e-6
0.680, 1.295e-6
0.740, 1.225e-6
0.800, 1.060e-6
0.860, 9.104e-7
0.920, 8.103e-7
0.980, 7.512e-7
1.040, 7.534e-7
1.100, 8.532e-7
1.040, 1.946e-7
0.980, 4.080e-8
0.920, -5.448e-8
0.860, -1.536e-7
0.800, -2.765e-7
0.740, -4.596e-7
0.680, -7.283e-7
0.620, -1.034e-6
0.560, -1.278e-6
0.500, -1.166e-6
0.440, -9.344e-7
0.380, -7.882e-7
0.320, -7.054e-7
0.260, -6.779e-7
0.200, -7.236e-7
0.260, -1.356e-7
0.320, -2.614e-8
0.380, 2.792e-8
0.440, 8.634e-8
0.500, 2.226e-7
0.560, 5.802e-7
0.620, 1.045e-6
0.680, 1.222e-6
0.740, 1.157e-6
0.800, 1.007e-6
0.860, 8.714e-7
0.920, 7.822e-7
0.980, 7.328e-7
1.040, 7.410e-7
1.100, 8.455e-7
1.040, 1.915e-7
0.980, 3.917e-8
0.920, -5.386e-8
0.860, -1.490e-7
0.800, -2.653e-7
0.740, -4.371e-7
0.680, -6.905e-7
0.620, -9.768e-7
0.560, -1.207e-6
0.500, -1.103e-6
0.440, -8.911e-7
0.380, -7.580e-7
0.320, -6.840e-7
0.260, -6.629e-7
0.200, -7.131e-7
0.260, -1.291e-7
0.320, -2.125e-8
0.380, 3.160e-8
0.440, 8.706e-8
0.500, 2.154e-7
0.560, 5.502e-7
0.620, 9.829e-7
0.680, 1.147e-6
0.740, 1.088e-6
0.800, 9.533e-7
0.860, 8.331e-7
0.920, 7.559e-7
0.980, 7.161e-7
1.040, 7.310e-7
1.100, 8.395e-7
1.040, 1.891e-7
0.980, 3.802e-8
0.920, -5.290e-8
0.860, -1.438e-7
0.800, -2.534e-7
0.740, -4.136e-7
0.680, -6.501e-7
0.620, -9.169e-7
0.560, -1.133e-6
0.500, -1.037e-6
0.440, -8.456e-7
0.380, -7.274e-7
0.320, -6.626e-7
0.260, -6.478e-7
0.200, -7.018e-7
0.260, -1.223e-7
0.320, -1.642e-8
0.380, 3.469e-8
0.440, 8.759e-8
0.500, 2.069e-7
0.560, 5.194e-7
0.620, 9.198e-7
0.680, 1.071e-6
0.740, 1.019e-6
0.800, 8.991e-7
0.860, 7.927e-7
0.920, 7.273e-7
0.980, 6.956e-7
1.040, 7.175e-7
1.100, 8.304e-7
1.040, 1.847e-7
0.980, 3.590e-8
0.920, -5.257e-8
0.860, -1.391e-7
0.800, -2.419e-7
0.740, -3.912e-7
0.680, -6.114e-7
0.620, -8.582e-7
0.560, -1.061e-6
0.500, -9.745e-7
0.440, -8.026e-7
0.380, -6.982e-7
0.320, -6.428e-7
0.260, -6.332e-7
0.200, -6.921e-7
0.260, -1.164e-7
0.320, -1.195e-8
0.380, 3.760e-8
0.440, 8.780e-8
0.500, 1.990e-7
0.560, 4.892e-7
0.620, 8.602e-7
0.680, 1.000e-6
0.740, 9.536e-7
0.800, 8.473e-7
0.860, 7.548e-7
0.920, 6.985e-7
0.980, 6.756e-7
1.040, 7.032e-7
1.100, 8.210e-7
1.040, 1.805e-7
0.980, 3.376e-8
0.920, -5.257e-8
0.860, -1.349e-7
0.800, -2.313e-7
0.740, -3.702e-7
0.680, -5.752e-7
0.620, -8.054e-7
0.560, -9.948e-7
0.500, -9.160e-7
0.440, -7.625e-7
0.380, -6.711e-7
0.320, -6.227e-7
0.260, -6.194e-7
0.202, -6.932e-7