File: Data/2022-03-23 MQ HCF/CV-Carbon-FeHCF-2.txt
Mar. 22, 2022   15:00:47
Cyclic Voltammetry
File: d:\mq\20220322-pba stability\cv-carbon-fehcf-2.txt
Data Source:  Experiment
Instrument Model:  CHI840D
Header:
Note:

Init E (V) = -0.3
High E (V) = 0.5
Low E (V) = -0.3
Init P/N = P
Scan Rate (V/s) = 0.05
Segment = 100
Sample Interval (V) = 0.001
Quiet Time (sec) = 2
Sensitivity (A/V) = 1e-5

Segment 1:

Segment 2:

Segment 3:

Segment 4:

Segment 5:

Segment 6:

Segment 7:

Segment 8:

Segment 9:

Segment 10:

Segment 11:

Segment 12:

Segment 13:

Segment 14:

Segment 15:

Segment 16:

Segment 17:

Segment 18:

Segment 19:

Segment 20:

Segment 21:

Segment 22:

Segment 23:

Segment 24:

Segment 25:

Segment 26:

Segment 27:

Segment 28:

Segment 29:

Segment 30:

Segment 31:

Segment 32:

Segment 33:

Segment 34:

Segment 35:

Segment 36:

Segment 37:

Segment 38:

Segment 39:
Ep = 0.114V
ip = 1.497e-6A
Ah = 1.141e-6C

Segment 40:
Ep = -0.048V
ip = -9.913e-7A
Ah = -1.748e-6C

Segment 41:
Ep = 0.112V
ip = 1.296e-6A
Ah = 7.502e-7C

Segment 42:
Ep = -0.045V
ip = -1.108e-6A
Ah = -1.691e-6C

Segment 43:
Ep = 0.110V
ip = 1.169e-6A
Ah = 5.083e-7C

Segment 44:
Ep = -0.043V
ip = -1.144e-6A
Ah = -1.531e-6C

Segment 45:
Ep = 0.109V
ip = 1.107e-6A
Ah = 3.939e-7C

Segment 46:
Ep = -0.043V
ip = -1.099e-6A
Ah = -1.396e-6C

Segment 47:
Ep = 0.109V
ip = 1.064e-6A
Ah = 3.431e-7C

Segment 48:
Ep = -0.041V
ip = -1.094e-6A
Ah = -1.196e-6C

Segment 49:
Ep = 0.108V
ip = 1.038e-6A
Ah = 2.932e-7C

Segment 50:
Ep = -0.041V
ip = -1.034e-6A
Ah = -1.073e-6C

Segment 51:
Ep = 0.108V
ip = 1.034e-6A
Ah = 2.816e-7C

Segment 52:
Ep = -0.038V
ip = -1.021e-6A
Ah = -9.157e-7C

Segment 53:
Ep = 0.107V
ip = 1.027e-6A
Ah = 2.555e-7C

Segment 54:
Ep = -0.035V
ip = -9.575e-7A
Ah = -7.774e-7C

Segment 55:
Ep = 0.107V
ip = 1.024e-6A
Ah = 2.567e-7C

Segment 56:
Ep = -0.037V
ip = -9.643e-7A
Ah = -7.470e-7C

Segment 57:
Ep = 0.108V
ip = 1.036e-6A
Ah = 2.760e-7C

Segment 58:
Ep = -0.037V
ip = -9.170e-7A
Ah = -6.777e-7C

Segment 59:
Ep = 0.108V
ip = 1.040e-6A
Ah = 2.768e-7C

Segment 60:
Ep = -0.033V
ip = -8.870e-7A
Ah = -5.651e-7C

Segment 61:
Ep = 0.108V
ip = 1.045e-6A
Ah = 2.773e-7C

Segment 62:
Ep = -0.035V
ip = -8.866e-7A
Ah = -5.553e-7C

Segment 63:
Ep = 0.107V
ip = 1.040e-6A
Ah = 2.563e-7C

Segment 64:
Ep = -0.033V
ip = -8.579e-7A
Ah = -4.754e-7C

Segment 65:
Ep = 0.108V
ip = 1.035e-6A
Ah = 2.809e-7C

Segment 66:
Ep = -0.034V
ip = -8.299e-7A
Ah = -4.740e-7C

Segment 67:
Ep = 0.107V
ip = 1.037e-6A
Ah = 2.615e-7C

Segment 68:
Ep = -0.033V
ip = -8.215e-7A
Ah = -4.395e-7C

Segment 69:
Ep = 0.108V
ip = 1.025e-6A
Ah = 2.806e-7C

Segment 70:
Ep = -0.034V
ip = -8.034e-7A
Ah = -4.297e-7C

Segment 71:
Ep = 0.107V
ip = 1.019e-6A
Ah = 2.598e-7C

Segment 72:
Ep = -0.035V
ip = -7.514e-7A
Ah = -4.195e-7C

Segment 73:

Segment 74:
Ep = -0.034V
ip = -7.654e-7A
Ah = -4.015e-7C

Segment 75:

Segment 76:
Ep = -0.035V
ip = -8.117e-7A
Ah = -4.052e-7C

Segment 77:

Segment 78:
Ep = -0.033V
ip = -7.696e-7A
Ah = -3.598e-7C

Segment 79:

Segment 80:
Ep = -0.032V
ip = -7.140e-7A
Ah = -3.423e-7C

Segment 81:

Segment 82:
Ep = -0.035V
ip = -8.270e-7A
Ah = -3.847e-7C

Segment 83:

Segment 84:
Ep = -0.032V
ip = -7.330e-7A
Ah = -3.259e-7C

Segment 85:

Segment 86:
Ep = -0.030V
ip = -7.245e-7A
Ah = -3.090e-7C

Segment 87:

Segment 88:
Ep = -0.033V
ip = -7.283e-7A
Ah = -3.318e-7C

Segment 89:

Segment 90:
Ep = -0.034V
ip = -7.378e-7A
Ah = -3.312e-7C

Segment 91:

Segment 92:
Ep = -0.032V
ip = -7.193e-7A
Ah = -3.076e-7C

Segment 93:

Segment 94:
Ep = -0.033V
ip = -7.297e-7A
Ah = -3.329e-7C

Segment 95:

Segment 96:
Ep = -0.035V
ip = -6.572e-7A
Ah = -3.250e-7C

Segment 97:

Segment 98:
Ep = -0.032V
ip = -6.812e-7A
Ah = -3.018e-7C

Segment 99:

Segment 100:
Ep = -0.035V
ip = -7.213e-7A
Ah = -3.377e-7C

Potential/V, Current/A

-0.300, -4.080e-6
-0.246, -1.861e-6
-0.192, -9.620e-7
-0.138, 6.725e-8
-0.084, 1.846e-6
-0.030, 4.310e-6
0.024, 6.797e-6
0.078, 8.637e-6
0.132, 9.918e-6
0.186, 1.091e-5
0.240, 1.114e-5
0.294, 8.914e-6
0.348, 3.134e-6
0.402, 9.954e-7
0.456, 5.306e-7
0.490, 2.430e-7
0.436, 6.124e-8
0.382, -4.653e-8
0.328, -3.399e-7
0.274, -1.266e-6
0.220, -3.152e-6
0.166, -5.664e-6
0.112, -8.161e-6
0.058, -1.005e-5
0.004, -1.091e-5
-0.050, -1.060e-5
-0.104, -9.260e-6
-0.158, -5.981e-6
-0.212, -3.076e-6
-0.266, -2.164e-6
-0.280, -1.508e-6
-0.226, -9.067e-7
-0.172, -4.003e-7
-0.118, 5.724e-7
-0.064, 2.519e-6
-0.010, 5.140e-6
0.044, 7.577e-6
0.098, 9.255e-6
0.152, 1.043e-5
0.206, 1.118e-5
0.260, 1.063e-5
0.314, 6.488e-6
0.368, 1.970e-6
0.422, 8.463e-7
0.476, 5.484e-7
0.470, 1.868e-7
0.416, 5.843e-8
0.362, -6.362e-8
0.308, -4.337e-7
0.254, -1.566e-6
0.200, -3.710e-6
0.146, -6.338e-6
0.092, -8.730e-6
0.038, -1.039e-5
-0.016, -1.092e-5
-0.070, -1.027e-5
-0.124, -8.328e-6
-0.178, -4.542e-6
-0.232, -2.541e-6
-0.286, -1.981e-6
-0.260, -1.158e-6
-0.206, -6.896e-7
-0.152, -1.527e-7
-0.098, 1.047e-6
-0.044, 3.246e-6
0.010, 5.912e-6
0.064, 8.148e-6
0.118, 9.617e-6
0.172, 1.068e-5
0.226, 1.105e-5
0.280, 9.417e-6
0.334, 4.199e-6
0.388, 1.471e-6
0.442, 7.710e-7
0.496, 5.661e-7
0.450, 1.509e-7
0.396, 3.988e-8
0.342, -1.225e-7
0.288, -6.543e-7
0.234, -2.096e-6
0.180, -4.461e-6
0.126, -7.079e-6
0.072, -9.264e-6
0.018, -1.057e-5
-0.036, -1.065e-5
-0.090, -9.612e-6
-0.144, -6.870e-6
-0.198, -3.519e-6
-0.252, -2.237e-6
-0.294, -1.650e-6
-0.240, -9.317e-7
-0.186, -5.141e-7
-0.132, 1.359e-7
-0.078, 1.613e-6
-0.024, 4.013e-6
0.030, 6.621e-6
0.084, 8.609e-6
0.138, 9.900e-6
0.192, 1.078e-5
0.246, 1.059e-5
0.300, 7.551e-6
0.354, 2.832e-6
0.408, 1.216e-6
0.462, 7.358e-7
0.484, 3.338e-7
0.430, 1.259e-7
0.376, 1.333e-8
0.322, -2.180e-7
0.268, -9.794e-7
0.214, -2.742e-6
0.160, -5.254e-6
0.106, -7.766e-6
0.052, -9.679e-6
-0.002, -1.056e-5
-0.056, -1.018e-5
-0.110, -8.724e-6
-0.164, -5.336e-6
-0.218, -2.898e-6
-0.272, -2.060e-6
-0.274, -1.281e-6
-0.220, -7.563e-7
-0.166, -3.388e-7
-0.112, 4.819e-7
-0.058, 2.246e-6
-0.004, 4.775e-6
0.050, 7.237e-6
0.104, 8.973e-6
0.158, 1.015e-5
0.212, 1.070e-5
0.266, 9.692e-6
0.320, 5.451e-6
0.374, 2.101e-6
0.428, 1.067e-6
0.482, 7.182e-7
0.464, 2.559e-7
0.410, 1.006e-7
0.356, -2.800e-8
0.302, -3.667e-7
0.248, -1.407e-6
0.194, -3.454e-6
0.140, -6.017e-6
0.086, -8.350e-6
0.032, -9.926e-6
-0.022, -1.032e-5
-0.076, -9.550e-6
-0.130, -7.447e-6
-0.184, -4.154e-6
-0.238, -2.527e-6
-0.292, -1.993e-6
-0.254, -1.049e-6
-0.200, -6.132e-7
-0.146, -1.440e-7
-0.092, 9.038e-7
-0.038, 2.918e-6
0.016, 5.485e-6
0.070, 7.737e-6
0.124, 9.238e-6
0.178, 1.027e-5
0.232, 1.036e-5
0.286, 8.270e-6
0.340, 3.860e-6
0.394, 1.705e-6
0.448, 9.817e-7
0.498, 6.049e-7
0.444, 2.098e-7
0.390, 7.583e-8
0.336, -8.814e-8
0.282, -5.812e-7
0.228, -1.927e-6
0.174, -4.185e-6
0.120, -6.702e-6
0.066, -8.790e-6
0.012, -9.960e-6
-0.042, -9.879e-6
-0.096, -8.842e-6
-0.150, -6.022e-6
-0.204, -3.411e-6
-0.258, -2.303e-6
-0.288, -1.564e-6
-0.234, -8.727e-7
-0.180, -4.774e-7
-0.126, 9.136e-8
-0.072, 1.393e-6
-0.018, 3.597e-6
0.036, 6.102e-6
0.090, 8.108e-6
0.144, 9.445e-6
0.198, 1.019e-5
0.252, 9.661e-6
0.306, 6.496e-6
0.360, 2.909e-6
0.414, 1.482e-6
0.468, 9.436e-7
0.478, 4.229e-7
0.424, 1.812e-7
0.370, 4.959e-8
0.316, -1.745e-7
0.262, -8.748e-7
0.208, -2.514e-6
0.154, -4.886e-6
0.100, -7.273e-6
0.046, -9.054e-6
-0.008, -9.766e-6
-0.062, -9.268e-6
-0.116, -7.742e-6
-0.170, -4.832e-6
-0.224, -2.959e-6
-0.278, -2.194e-6
-0.268, -1.262e-6
-0.214, -7.312e-7
-0.160, -3.353e-7
-0.106, 3.794e-7
-0.052, 1.930e-6
0.002, 4.241e-6
0.056, 6.594e-6
0.110, 8.344e-6
0.164, 9.605e-6
0.218, 9.884e-6
0.272, 8.551e-6
0.326, 4.916e-6
0.380, 2.376e-6
0.434, 1.363e-6
0.488, 9.418e-7
0.458, 3.525e-7
0.404, 1.608e-7
0.350, 1.676e-8
0.296, -3.016e-7
0.242, -1.248e-6
0.188, -3.130e-6
0.134, -5.518e-6
0.080, -7.695e-6
0.026, -9.107e-6
-0.028, -9.348e-6
-0.082, -8.677e-6
-0.136, -6.486e-6
-0.190, -3.990e-6
-0.244, -2.675e-6
-0.298, -2.171e-6
-0.248, -1.051e-6
-0.194, -6.046e-7
-0.140, -1.723e-7
-0.086, 7.274e-7
-0.032, 2.479e-6
0.022, 4.794e-6
0.076, 6.936e-6
0.130, 8.468e-6
0.184, 9.447e-6
0.238, 9.294e-6
0.292, 7.132e-6
0.346, 3.840e-6
0.400, 2.075e-6
0.454, 1.309e-6
0.492, 7.449e-7
0.438, 3.144e-7
0.384, 1.422e-7
0.330, -3.122e-8
0.276, -4.820e-7
0.222, -1.687e-6
0.168, -3.735e-6
0.114, -6.041e-6
0.060, -7.946e-6
0.006, -8.933e-6
-0.048, -8.755e-6
-0.102, -7.756e-6
-0.156, -5.366e-6
-0.210, -3.453e-6
-0.264, -2.507e-6
-0.282, -1.600e-6
-0.228, -8.835e-7
-0.174, -4.830e-7
-0.120, 2.152e-8
-0.066, 1.117e-6
-0.012, 2.999e-6
0.042, 5.229e-6
0.096, 7.137e-6
0.150, 8.627e-6
0.204, 9.125e-6
0.258, 8.396e-6
0.312, 5.738e-6
0.366, 3.185e-6
0.420, 1.907e-6
0.474, 1.299e-6
0.472, 6.016e-7
0.418, 2.881e-7
0.364, 1.213e-7
0.310, -1.023e-7
0.256, -7.221e-7
0.202, -2.165e-6
0.148, -4.281e-6
0.094, -6.426e-6
0.040, -7.997e-6
-0.014, -8.545e-6
-0.068, -8.160e-6
-0.122, -6.657e-6
-0.176, -4.509e-6
-0.230, -3.101e-6
-0.284, -2.423e-6
-0.262, -1.301e-6
-0.208, -7.405e-7
-0.154, -3.552e-7
-0.100, 2.510e-7
-0.046, 1.518e-6
0.008, 3.447e-6
0.062, 5.520e-6
0.116, 7.191e-6
0.170, 8.417e-6
0.224, 8.573e-6
0.278, 7.258e-6
0.332, 4.671e-6
0.386, 2.796e-6
0.440, 1.823e-6
0.494, 1.321e-6
0.452, 5.263e-7
0.398, 2.659e-7
0.344, 9.242e-8
0.290, -2.051e-7
0.236, -1.017e-6
0.182, -2.636e-6
0.128, -4.717e-6
0.074, -6.629e-6
0.020, -7.816e-6
-0.034, -7.969e-6
-0.088, -7.512e-6
-0.142, -5.647e-6
-0.196, -3.904e-6
-0.250, -2.872e-6
-0.296, -2.149e-6
-0.242, -1.081e-6
-0.188, -6.143e-7
-0.134, -2.175e-7
-0.080, 5.056e-7
-0.026, 1.889e-6
0.028, 3.776e-6
0.082, 5.646e-6
0.136, 7.240e-6
0.190, 8.016e-6
0.244, 7.781e-6
0.298, 6.090e-6
0.352, 3.953e-6
0.406, 2.568e-6
0.460, 1.792e-6
0.486, 1.022e-6
0.432, 4.762e-7
0.378, 2.442e-7
0.324, 5.222e-8
0.270, -3.419e-7
0.216, -1.337e-6
0.162, -3.049e-6
0.108, -5.007e-6
0.054, -6.624e-6
0.000, -7.418e-6
-0.054, -7.331e-6
-0.108, -6.466e-6
-0.162, -4.823e-6
-0.216, -3.493e-6
-0.270, -2.738e-6
-0.276, -1.659e-6
-0.222, -9.030e-7
-0.168, -4.934e-7
-0.114, -6.191e-8
-0.060, 7.688e-7
-0.006, 2.191e-6
0.048, 3.963e-6
0.102, 5.606e-6
0.156, 7.038e-6
0.210, 7.427e-6
0.264, 6.813e-6
0.318, 5.119e-6
0.372, 3.494e-6
0.426, 2.440e-6
0.480, 1.803e-6
0.466, 8.638e-7
0.412, 4.400e-7
0.358, 2.221e-7
0.304, -2.026e-9
0.250, -5.090e-7
0.196, -1.652e-6
0.142, -3.359e-6
0.088, -5.120e-6
0.034, -6.398e-6
-0.020, -6.844e-6
-0.074, -6.899e-6
-0.128, -5.553e-6
-0.182, -4.175e-6
-0.236, -3.210e-6
-0.290, -2.674e-6
-0.256, -1.341e-6
-0.202, -7.477e-7
-0.148, -3.732e-7
-0.094, 1.029e-7
-0.040, 1.006e-6
0.014, 2.399e-6
0.068, 3.999e-6
0.122, 5.550e-6
0.176, 6.510e-6
0.230, 6.672e-6
0.284, 5.837e-6
0.338, 4.405e-6
0.392, 3.192e-6
0.446, 2.365e-6
0.500, 1.821e-6
0.446, 7.583e-7
0.392, 4.045e-7
0.338, 1.917e-7
0.284, -7.648e-8
0.230, -6.973e-7
0.176, -1.924e-6
0.122, -3.539e-6
0.068, -5.047e-6
0.014, -5.981e-6
-0.040, -6.202e-6
-0.094, -5.903e-6
-0.148, -4.760e-6
-0.202, -3.717e-6
-0.256, -3.015e-6
-0.290, -2.164e-6
-0.236, -1.095e-6
-0.182, -6.088e-7
-0.128, -2.514e-7
-0.074, 2.688e-7
-0.020, 1.188e-6
0.034, 2.481e-6
0.088, 3.881e-6
0.142, 5.403e-6
0.196, 5.884e-6
0.250, 5.826e-6
0.304, 4.995e-6
0.358, 3.901e-6
0.412, 2.989e-6
0.466, 2.325e-6
0.480, 1.353e-6
0.426, 6.744e-7
0.372, 3.676e-7
0.318, 1.525e-7
0.264, -1.671e-7
0.210, -8.818e-7
0.156, -2.113e-6
0.102, -3.569e-6
0.048, -4.788e-6
-0.006, -5.430e-6
-0.060, -5.864e-6
-0.114, -5.055e-6
-0.168, -4.138e-6
-0.222, -3.380e-6
-0.276, -2.879e-6
-0.270, -1.663e-6
-0.216, -8.878e-7
-0.162, -4.776e-7
-0.108, -1.277e-7
-0.054, 4.152e-7
-0.000, 1.297e-6
0.054, 2.449e-6
0.108, 3.720e-6
0.162, 4.752e-6
0.216, 5.183e-6
0.270, 5.016e-6
0.324, 4.336e-6
0.378, 3.535e-6
0.432, 2.840e-6
0.486, 2.300e-6
0.460, 1.125e-6
0.406, 5.990e-7
0.352, 3.257e-7
0.298, 1.019e-7
0.244, -2.695e-7
0.190, -1.041e-6
0.136, -2.209e-6
0.082, -3.460e-6
0.028, -4.398e-6
-0.026, -4.844e-6
-0.080, -5.015e-6
-0.134, -4.363e-6
-0.188, -3.655e-6
-0.242, -3.126e-6
-0.296, -2.804e-6
-0.250, -1.305e-6
-0.196, -7.092e-7
-0.142, -3.567e-7
-0.088, -8.743e-9
-0.034, 5.282e-7
0.020, 1.331e-6
0.074, 2.327e-6
0.128, 3.860e-6
0.182, 4.184e-6
0.236, 4.488e-6
0.290, 4.324e-6
0.344, 3.835e-6
0.398, 3.256e-6
0.452, 2.717e-6
0.494, 1.992e-6
0.440, 9.502e-7
0.386, 5.244e-7
0.332, 2.764e-7
0.278, 4.168e-8
0.224, -3.753e-7
0.170, -1.157e-6
0.116, -2.213e-6
0.062, -3.243e-6
0.008, -3.946e-6
-0.046, -4.567e-6
-0.100, -4.275e-6
-0.154, -3.779e-6
-0.208, -3.294e-6
-0.262, -2.934e-6
-0.284, -2.040e-6
-0.230, -1.027e-6
-0.176, -5.532e-7
-0.122, -2.429e-7
-0.068, 9.745e-8
-0.014, 6.014e-7
0.040, 1.309e-6
0.094, 2.178e-6
0.148, 3.128e-6
0.202, 3.636e-6
0.256, 3.875e-6
0.310, 3.778e-6
0.364, 3.451e-6
0.418, 3.027e-6
0.472, 2.602e-6
0.474, 1.529e-6
0.420, 7.991e-7
0.366, 4.473e-7
0.312, 2.195e-7
0.258, -2.778e-8
0.204, -4.756e-7
0.150, -1.229e-6
0.096, -2.149e-6
0.042, -2.969e-6
-0.012, -3.515e-6
-0.066, -4.098e-6
-0.120, -3.702e-6
-0.174, -3.333e-6
-0.228, -3.024e-6
-0.282, -2.807e-6
-0.264, -1.532e-6
-0.210, -8.011e-7
-0.156, -4.185e-7
-0.102, -1.395e-7
-0.048, 1.846e-7
0.006, 6.417e-7
0.060, 1.254e-6
0.114, 2.702e-6
0.168, 2.725e-6
0.222, 3.158e-6
0.276, 3.376e-6
0.330, 3.353e-6
0.384, 3.144e-6
0.438, 2.830e-6
0.492, 2.491e-6
0.454, 1.214e-6
0.400, 6.644e-7
0.346, 3.698e-7
0.292, 1.577e-7
0.238, -1.024e-7
0.184, -5.619e-7
0.130, -1.256e-6
0.076, -2.033e-6
0.022, -2.680e-6
-0.032, -3.272e-6
-0.086, -3.423e-6
-0.140, -3.241e-6
-0.194, -3.006e-6
-0.248, -2.821e-6
-0.298, -2.545e-6
-0.244, -1.171e-6
-0.190, -6.168e-7
-0.136, -3.010e-7
-0.082, -4.756e-8
-0.028, 2.507e-7
0.026, 6.557e-7
0.080, 1.181e-6
0.134, 1.972e-6
0.188, 2.378e-6
0.242, 2.761e-6
0.296, 2.982e-6
0.350, 3.019e-6
0.404, 2.891e-6
0.458, 2.658e-6
0.488, 1.929e-6
0.434, 9.739e-7
0.380, 5.456e-7
0.326, 2.958e-7
0.272, 9.427e-8
0.218, -1.761e-7
0.164, -6.299e-7
0.110, -1.251e-6
0.056, -1.892e-6
0.002, -2.419e-6
-0.052, -3.253e-6
-0.106, -3.010e-6
-0.160, -2.874e-6
-0.214, -2.764e-6
-0.268, -2.677e-6
-0.278, -1.785e-6
-0.224, -8.942e-7
-0.170, -4.636e-7
-0.116, -2.007e-7
-0.062, 3.124e-8
-0.008, 3.005e-7
0.046, 6.550e-7
0.100, 1.483e-6
0.154, 1.713e-6
0.208, 2.100e-6
0.262, 2.448e-6
0.316, 2.676e-6
0.370, 2.751e-6
0.424, 2.679e-6
0.478, 2.506e-6
0.468, 1.452e-6
0.414, 7.807e-7
0.360, 4.399e-7
0.306, 2.233e-7
0.252, 3.048e-8
0.198, -2.473e-7
0.144, -6.788e-7
0.090, -1.221e-6
0.036, -1.745e-6
-0.018, -2.254e-6
-0.072, -2.661e-6
-0.126, -2.667e-6
-0.180, -2.617e-6
-0.234, -2.583e-6
-0.288, -2.592e-6
-0.258, -1.322e-6
-0.204, -6.763e-7
-0.150, -3.361e-7
-0.096, -1.127e-7
-0.042, 9.545e-8
0.012, 3.350e-7
0.066, 6.457e-7
0.120, 1.509e-6
0.174, 1.526e-6
0.228, 1.881e-6
0.282, 2.204e-6
0.336, 2.436e-6
0.390, 2.533e-6
0.444, 2.499e-6
0.498, 2.373e-6
0.448, 1.118e-6
0.394, 6.199e-7
0.340, 3.443e-7
0.286, 1.554e-7
0.232, -3.373e-8
0.178, -3.128e-7
0.124, -7.117e-7
0.070, -1.176e-6
0.016, -1.614e-6
-0.038, -2.547e-6
-0.092, -2.358e-6
-0.146, -2.399e-6
-0.200, -2.417e-6
-0.254, -2.459e-6
-0.292, -2.088e-6
-0.238, -9.889e-7
-0.184, -5.032e-7
-0.130, -2.283e-7
-0.076, -3.353e-8
-0.022, 1.487e-7
0.032, 3.615e-7
0.086, 6.863e-7
0.140, 1.127e-6
0.194, 1.383e-6
0.248, 1.714e-6
0.302, 2.020e-6
0.356, 2.246e-6
0.410, 2.355e-6
0.464, 2.348e-6
0.482, 1.664e-6
0.428, 8.683e-7
0.374, 4.866e-7
0.320, 2.602e-7
0.266, 8.991e-8
0.212, -9.801e-8
0.158, -3.694e-7
0.104, -7.295e-7
0.050, -1.124e-6
-0.004, -1.528e-6
-0.058, -2.130e-6
-0.112, -2.145e-6
-0.166, -2.195e-6
-0.220, -2.276e-6
-0.274, -2.381e-6
-0.272, -1.488e-6
-0.218, -7.367e-7
-0.164, -3.630e-7
-0.110, -1.398e-7
-0.056, 3.023e-8
-0.002, 1.915e-7
0.052, 3.808e-7
0.106, 1.524e-6
0.160, 1.011e-6
0.214, 1.275e-6
0.268, 1.588e-6
0.322, 1.878e-6
0.376, 2.093e-6
0.430, 2.209e-6
0.484, 2.222e-6
0.462, 1.236e-6
0.408, 6.724e-7
0.354, 3.749e-7
0.300, 1.850e-7
0.246, 2.966e-8
0.192, -1.574e-7
0.138, -4.163e-7
0.084, -7.381e-7
0.030, -1.078e-6
-0.024, -1.681e-6
-0.078, -1.848e-6
-0.132, -1.956e-6
-0.186, -2.053e-6
-0.240, -2.182e-6
-0.294, -2.351e-6
-0.252, -1.091e-6
-0.198, -5.408e-7
-0.144, -2.495e-7
-0.090, -6.196e-8
-0.036, 8.254e-8
0.018, 2.252e-7
0.072, 3.952e-7
0.126, 8.751e-7
0.180, 9.383e-7
0.234, 1.199e-6
0.288, 1.494e-6
0.342, 1.767e-6
0.396, 1.971e-6
0.450, 2.088e-6
0.496, 1.894e-6
0.442, 9.335e-7
0.388, 5.166e-7
0.334, 2.802e-7
0.280, 1.176e-7
0.226, -2.768e-8
0.172, -2.116e-7
0.118, -4.530e-7
0.064, -7.366e-7
0.010, -1.047e-6
-0.044, -1.897e-6
-0.098, -1.721e-6
-0.152, -1.816e-6
-0.206, -1.960e-6
-0.260, -2.129e-6
-0.286, -1.698e-6
-0.232, -8.004e-7
-0.178, -3.882e-7
-0.124, -1.551e-7
-0.070, 5.195e-10
-0.016, 1.253e-7
0.038, 2.524e-7
0.092, 6.503e-7
0.146, 7.396e-7
0.200, 8.921e-7
0.254, 1.148e-6
0.308, 1.426e-6
0.362, 1.681e-6
0.416, 1.875e-6
0.470, 1.989e-6
0.476, 1.339e-6
0.422, 7.077e-7
0.368, 3.898e-7
0.314, 1.980e-7
0.260, 5.773e-8
0.206, -8.090e-8
0.152, -2.591e-7
0.098, -4.810e-7
0.044, -7.318e-7
-0.010, -1.091e-6
-0.064, -1.465e-6
-0.118, -1.588e-6
-0.172, -1.713e-6
-0.226, -1.904e-6
-0.280, -2.112e-6
-0.266, -1.209e-6
-0.212, -5.825e-7
-0.158, -2.659e-7
-0.104, -7.810e-8
-0.050, 5.176e-8
0.004, 1.602e-7
0.058, 2.748e-7
0.112, 1.276e-6
0.166, 6.850e-7
0.220, 8.654e-7
0.274, 1.113e-6
0.328, 1.376e-6
0.382, 1.616e-6
0.436, 1.801e-6
0.490, 1.913e-6
0.456, 9.896e-7
0.402, 5.358e-7
0.348, 2.905e-7
0.294, 1.308e-7
0.240, 5.552e-9
0.186, -1.297e-7
0.132, -2.983e-7
0.078, -5.031e-7
0.024, -7.353e-7
-0.030, -1.592e-6
-0.084, -1.365e-6
-0.138, -1.497e-6
-0.192, -1.669e-6
-0.246, -1.870e-6
-0.300, -2.127e-6
-0.246, -8.777e-7
-0.192, -4.157e-7
-0.138, -1.693e-7
-0.084, -1.644e-8
-0.030, 9.245e-8
0.024, 1.880e-7
0.078, 3.090e-7
0.132, 6.330e-7
0.186, 6.597e-7
0.240, 8.543e-7
0.294, 1.095e-6
0.348, 1.346e-6
0.402, 1.572e-6
0.456, 1.748e-6
0.490, 1.478e-6
0.436, 7.429e-7
0.382, 4.041e-7
0.328, 2.080e-7
0.274, 7.291e-8
0.220, -4.191e-8
0.166, -1.741e-7
0.112, -3.349e-7
0.058, -5.232e-7
0.004, -7.672e-7
-0.050, -1.310e-6
-0.104, -1.319e-6
-0.158, -1.441e-6
-0.212, -1.642e-6
-0.266, -1.884e-6
-0.280, -1.369e-6
-0.226, -6.355e-7
-0.172, -2.877e-7
-0.118, -9.362e-8
-0.064, 3.325e-8
-0.010, 1.261e-7
0.044, 2.123e-7
0.098, 8.873e-7
0.152, 5.571e-7
0.206, 6.598e-7
0.260, 8.574e-7
0.314, 1.093e-6
0.368, 1.332e-6
0.422, 1.547e-6
0.476, 1.713e-6
0.470, 1.067e-6
0.416, 5.613e-7
0.362, 3.019e-7
0.308, 1.404e-7
0.254, 2.381e-8
0.200, -8.655e-8
0.146, -2.146e-7
0.092, -3.683e-7
0.038, -5.460e-7
-0.016, -9.972e-7
-0.070, -1.144e-6
-0.124, -1.283e-6
-0.178, -1.421e-6
-0.232, -1.649e-6
-0.286, -1.926e-6
-0.260, -9.908e-7
-0.206, -4.661e-7
-0.152, -1.912e-7
-0.098, -3.111e-8
-0.044, 7.281e-8
0.010, 1.539e-7
0.064, 2.344e-7
0.118, 8.914e-7
0.172, 5.357e-7
0.226, 6.709e-7
0.280, 8.714e-7
0.334, 1.102e-6
0.388, 1.330e-6
0.442, 1.533e-6
0.496, 1.689e-6
0.450, 7.927e-7
0.396, 4.231e-7
0.342, 2.187e-7
0.288, 8.423e-8
0.234, -2.042e-8
0.180, -1.274e-7
0.126, -2.519e-7
0.072, -3.991e-7
0.018, -5.800e-7
-0.036, -1.407e-6
-0.090, -1.141e-6
-0.144, -1.249e-6
-0.198, -1.429e-6
-0.252, -1.681e-6
-0.294, -1.632e-6
-0.240, -7.124e-7
-0.186, -3.203e-7
-0.132, -1.104e-7
-0.078, 1.839e-8
-0.024, 1.054e-7
0.030, 1.776e-7
0.084, 3.464e-7
0.138, 5.222e-7
0.192, 5.335e-7
0.246, 6.877e-7
0.300, 8.906e-7
0.354, 1.116e-6
0.408, 1.335e-6
0.462, 1.528e-6
0.484, 1.182e-6
0.430, 5.963e-7
0.376, 3.186e-7
0.322, 1.508e-7
0.268, 3.633e-8
0.214, -5.988e-8
0.160, -1.647e-7
0.106, -2.862e-7
0.052, -4.290e-7
-0.002, -6.587e-7
-0.056, -1.045e-6
-0.110, -1.119e-6
-0.164, -1.232e-6
-0.218, -1.453e-6
-0.272, -1.731e-6
-0.274, -1.131e-6
-0.220, -5.109e-7
-0.166, -2.147e-7
-0.112, -4.686e-8
-0.058, 5.790e-8
-0.004, 1.325e-7
0.050, 1.983e-7
0.104, 1.227e-6
0.158, 4.689e-7
0.212, 5.498e-7
0.266, 7.132e-7
0.320, 9.193e-7
0.374, 1.139e-6
0.428, 1.350e-6
0.482, 1.531e-6
0.464, 8.660e-7
0.410, 4.509e-7
0.356, 2.322e-7
0.302, 9.523e-8
0.248, -4.909e-9
0.194, -9.814e-8
0.140, -2.002e-7
0.086, -3.201e-7
0.032, -4.629e-7
-0.022, -1.051e-6
-0.076, -9.821e-7
-0.130, -1.090e-6
-0.184, -1.249e-6
-0.238, -1.493e-6
-0.292, -1.807e-6
-0.254, -8.095e-7
-0.200, -3.618e-7
-0.146, -1.321e-7
-0.092, 3.353e-9
-0.038, 8.993e-8
0.016, 1.554e-7
0.070, 2.191e-7
0.124, 6.070e-7
0.178, 4.603e-7
0.232, 5.726e-7
0.286, 7.456e-7
0.340, 9.516e-7
0.394, 1.165e-6
0.448, 1.366e-6
0.498, 1.396e-6
0.444, 6.474e-7
0.390, 3.387e-7
0.336, 1.651e-7
0.282, 4.899e-8
0.228, -4.092e-8
0.174, -1.317e-7
0.120, -2.333e-7
0.066, -3.519e-7
0.012, -5.129e-7
-0.042, -1.178e-6
-0.096, -1.018e-6
-0.150, -1.091e-6
-0.204, -1.291e-6
-0.258, -1.549e-6
-0.288, -1.347e-6
-0.234, -5.847e-7
-0.180, -2.482e-7
-0.126, -6.558e-8
-0.072, 4.393e-8
-0.018, 1.168e-7
0.036, 1.754e-7
0.090, 4.719e-7
0.144, 4.565e-7
0.198, 4.717e-7
0.252, 6.008e-7
0.306, 7.799e-7
0.360, 9.846e-7
0.414, 1.193e-6
0.468, 1.385e-6
0.478, 9.704e-7
0.424, 4.885e-7
0.370, 2.514e-7
0.316, 1.087e-7
0.262, 9.257e-9
0.208, -7.479e-8
0.154, -1.640e-7
0.100, -2.649e-7
0.046, -3.842e-7
-0.008, -6.407e-7
-0.062, -9.191e-7
-0.116, -9.937e-7
-0.170, -1.107e-6
-0.224, -1.334e-6
-0.278, -1.630e-6
-0.268, -9.495e-7
-0.214, -4.155e-7
-0.160, -1.593e-7
-0.106, -1.386e-8
-0.052, 7.386e-8
0.002, 1.397e-7
0.056, 1.939e-7
0.110, 1.237e-6
0.164, 4.211e-7
0.218, 4.903e-7
0.272, 6.324e-7
0.326, 8.184e-7
0.380, 1.019e-6
0.434, 1.221e-6
0.488, 1.405e-6
0.458, 7.154e-7
0.404, 3.672e-7
0.350, 1.807e-7
0.296, 6.198e-8
0.242, -2.593e-8
0.188, -1.073e-7
0.134, -1.943e-7
0.080, -2.954e-7
0.026, -4.201e-7
-0.028, -1.164e-6
-0.082, -9.159e-7
-0.136, -9.848e-7
-0.190, -1.153e-6
-0.244, -1.388e-6
-0.298, -1.749e-6
-0.248, -6.757e-7
-0.194, -2.903e-7
-0.140, -8.832e-8
-0.086, 2.859e-8
-0.032, 1.024e-7
0.022, 1.588e-7
0.076, 2.241e-7
0.130, 5.084e-7
0.184, 4.191e-7
0.238, 5.160e-7
0.292, 6.693e-7
0.346, 8.584e-7
0.400, 1.057e-6
0.454, 1.253e-6
0.492, 1.127e-6
0.438, 5.369e-7
0.384, 2.751e-7
0.330, 1.234e-7
0.276, 2.237e-8
0.222, -5.752e-8
0.168, -1.372e-7
0.114, -2.245e-7
0.060, -3.268e-7
0.006, -4.826e-7
-0.048, -9.553e-7
-0.102, -9.223e-7
-0.156, -9.910e-7
-0.210, -1.204e-6
-0.264, -1.471e-6
-0.282, -1.136e-6
-0.228, -4.843e-7
-0.174, -1.914e-7
-0.120, -3.305e-8
-0.066, 6.302e-8
-0.012, 1.257e-7
0.042, 1.757e-7
0.096, 7.167e-7
0.150, 4.102e-7
0.204, 4.337e-7
0.258, 5.468e-7
0.312, 7.115e-7
0.366, 8.998e-7
0.420, 1.097e-6
0.474, 1.286e-6
0.472, 8.096e-7
0.418, 4.046e-7
0.364, 2.008e-7
0.310, 7.613e-8
0.256, -1.207e-8
0.202, -8.772e-8
0.148, -1.655e-7
0.094, -2.543e-7
0.040, -3.588e-7
-0.014, -7.198e-7
-0.068, -8.407e-7
-0.122, -9.178e-7
-0.176, -1.024e-6
-0.230, -1.257e-6
-0.284, -1.580e-6
-0.262, -8.016e-7
-0.208, -3.399e-7
-0.154, -1.151e-7
-0.100, 1.283e-8
-0.046, 9.073e-8
0.008, 1.450e-7
0.062, 1.925e-7
0.116, 9.293e-7
0.170, 3.879e-7
0.224, 4.525e-7
0.278, 5.833e-7
0.332, 7.534e-7
0.386, 9.415e-7
0.440, 1.136e-6
0.494, 1.319e-6
0.452, 6.002e-7
0.398, 3.035e-7
0.344, 1.406e-7
0.290, 3.533e-8
0.236, -4.275e-8
0.182, -1.161e-7
0.128, -1.942e-7
0.074, -2.836e-7
0.020, -4.004e-7
-0.034, -1.214e-6
-0.088, -8.479e-7
-0.142, -9.092e-7
-0.196, -1.090e-6
-0.250, -1.341e-6
-0.296, -1.412e-6
-0.242, -5.720e-7
-0.188, -2.313e-7
-0.134, -5.394e-8
-0.080, 4.871e-8
-0.026, 1.139e-7
0.028, 1.625e-7
0.082, 2.937e-7
0.136, 4.507e-7
0.190, 3.936e-7
0.244, 4.819e-7
0.298, 6.236e-7
0.352, 7.985e-7
0.406, 9.874e-7
0.460, 1.178e-6
0.486, 9.419e-7
0.432, 4.524e-7
0.378, 2.252e-7
0.324, 9.174e-8
0.270, 1.421e-9
0.216, -7.106e-8
0.162, -1.435e-7
0.108, -2.218e-7
0.054, -3.131e-7
0.000, -4.835e-7
-0.054, -8.394e-7
-0.108, -8.466e-7
-0.162, -9.526e-7
-0.216, -1.139e-6
-0.270, -1.429e-6
-0.276, -9.647e-7
-0.222, -4.049e-7
-0.168, -1.474e-7
-0.114, -6.177e-9
-0.060, 7.833e-8
-0.006, 1.336e-7
0.048, 1.779e-7
0.102, 1.090e-6
0.156, 3.821e-7
0.210, 4.085e-7
0.264, 5.169e-7
0.318, 6.680e-7
0.372, 8.456e-7
0.426, 1.034e-6
0.480, 1.219e-6
0.466, 6.852e-7
0.412, 3.395e-7
0.358, 1.608e-7
0.304, 4.950e-8
0.250, -2.962e-8
0.196, -9.933e-8
0.142, -1.698e-7
0.088, -2.504e-7
0.034, -3.465e-7
-0.020, -8.709e-7
-0.074, -7.929e-7
-0.128, -8.465e-7
-0.182, -9.759e-7
-0.236, -1.212e-6
-0.290, -1.561e-6
-0.256, -6.804e-7
-0.202, -2.807e-7
-0.148, -8.091e-8
-0.094, 3.260e-8
-0.040, 1.021e-7
0.014, 1.508e-7
0.068, 1.935e-7
0.122, 6.252e-7
0.176, 3.729e-7
0.230, 4.320e-7
0.284, 5.546e-7
0.338, 7.132e-7
0.392, 8.916e-7
0.446, 1.079e-6
0.500, 1.245e-6
0.446, 5.111e-7
0.392, 2.532e-7
0.338, 1.086e-7
0.284, 1.446e-8
0.230, -5.748e-8
0.176, -1.253e-7
0.122, -1.965e-7
0.068, -2.778e-7
0.014, -3.930e-7
-0.040, -1.069e-6
-0.094, -8.631e-7
-0.148, -8.592e-7
-0.202, -1.042e-6
-0.256, -1.297e-6
-0.290, -1.194e-6
-0.236, -4.835e-7
-0.182, -1.856e-7
-0.128, -2.683e-8
-0.074, 6.502e-8
-0.020, 1.228e-7
0.034, 1.662e-7
0.088, 4.107e-7
0.142, 4.063e-7
0.196, 3.765e-7
0.250, 4.613e-7
0.304, 5.948e-7
0.358, 7.598e-7
0.412, 9.398e-7
0.466, 1.124e-6
0.480, 8.001e-7
0.426, 3.836e-7
0.372, 1.845e-7
0.318, 6.573e-8
0.264, -1.624e-8
0.210, -8.357e-8
0.156, -1.502e-7
0.102, -2.231e-7
0.048, -3.073e-7
-0.006, -5.116e-7
-0.060, -7.882e-7
-0.114, -7.990e-7
-0.168, -8.914e-7
-0.222, -1.103e-6
-0.276, -1.406e-6
-0.270, -8.257e-7
-0.216, -3.402e-7
-0.162, -1.146e-7
-0.108, 1.553e-8
-0.054, 9.066e-8
-0.000, 1.417e-7
0.054, 1.806e-7
0.108, 1.225e-6
0.162, 3.608e-7
0.216, 3.939e-7
0.270, 4.968e-7
0.324, 6.390e-7
0.378, 8.090e-7
0.432, 9.899e-7
0.486, 1.172e-6
0.460, 5.880e-7
0.406, 2.890e-7
0.352, 1.292e-7
0.298, 2.901e-8
0.244, -4.361e-8
0.190, -1.088e-7
0.136, -1.749e-7
0.082, -2.498e-7
0.028, -3.415e-7
-0.026, -1.040e-6
-0.080, -7.579e-7
-0.134, -8.239e-7
-0.188, -9.544e-7
-0.242, -1.198e-6
-0.296, -1.537e-6
-0.250, -5.851e-7
-0.196, -2.318e-7
-0.142, -5.240e-8
-0.088, 4.987e-8
-0.034, 1.126e-7
0.020, 1.562e-7
0.074, 2.022e-7
0.128, 5.065e-7
0.182, 3.574e-7
0.236, 4.184e-7
0.290, 5.343e-7
0.344, 6.856e-7
0.398, 8.585e-7
0.452, 1.040e-6
0.494, 9.726e-7
0.440, 4.409e-7
0.386, 2.136e-7
0.332, 8.354e-8
0.278, -2.234e-9
0.224, -6.880e-8
0.170, -1.329e-7
0.116, -1.997e-7
0.062, -2.764e-7
0.008, -3.977e-7
-0.046, -9.266e-7
-0.100, -7.748e-7
-0.154, -8.273e-7
-0.208, -1.009e-6
-0.262, -1.279e-6
-0.284, -1.022e-6
-0.230, -4.133e-7
-0.176, -1.480e-7
-0.122, -5.880e-9
-0.068, 7.781e-8
-0.014, 1.306e-7
0.040, 1.701e-7
0.094, 5.962e-7
0.148, 3.740e-7
0.202, 3.656e-7
0.256, 4.492e-7
0.310, 5.767e-7
0.364, 7.341e-7
0.418, 9.077e-7
0.472, 1.088e-6
0.474, 6.885e-7
0.420, 3.301e-7
0.366, 1.532e-7
0.312, 4.511e-8
0.258, -3.008e-8
0.204, -9.382e-8
0.150, -1.562e-7
0.096, -2.246e-7
0.042, -3.052e-7
-0.012, -5.891e-7
-0.066, -7.196e-7
-0.120, -7.714e-7
-0.174, -8.718e-7
-0.228, -1.084e-6
-0.282, -1.396e-6
-0.264, -7.128e-7
-0.210, -2.869e-7
-0.156, -8.078e-8
-0.102, 3.366e-8
-0.048, 1.007e-7
0.006, 1.464e-7
0.060, 1.833e-7
0.114, 9.963e-7
0.168, 3.458e-7
0.222, 3.842e-7
0.276, 4.833e-7
0.330, 6.203e-7
0.384, 7.822e-7
0.438, 9.583e-7
0.492, 1.136e-6
0.454, 5.085e-7
0.400, 2.457e-7
0.346, 1.027e-7
0.292, 1.233e-8
0.238, -5.528e-8
0.184, -1.172e-7
0.130, -1.794e-7
0.076, -2.506e-7
0.022, -3.420e-7
-0.032, -1.080e-6
-0.086, -7.652e-7
-0.140, -7.751e-7
-0.194, -9.251e-7
-0.248, -1.167e-6
-0.298, -1.348e-6
-0.244, -5.210e-7
-0.190, -1.890e-7
-0.136, -2.849e-8
-0.082, 6.470e-8
-0.028, 1.206e-7
0.026, 1.608e-7
0.080, 2.641e-7
0.134, 4.347e-7
0.188, 3.477e-7
0.242, 4.088e-7
0.296, 5.220e-7
0.350, 6.674e-7
0.404, 8.335e-7
0.458, 1.010e-6
0.488, 8.298e-7
0.434, 3.805e-7
0.380, 1.781e-7
0.326, 6.315e-8
0.272, -1.674e-8
0.218, -7.942e-8
0.164, -1.402e-7
0.110, -2.037e-7
0.056, -2.768e-7
0.002, -4.156e-7
-0.052, -7.951e-7
-0.106, -7.577e-7
-0.160, -8.179e-7
-0.214, -9.985e-7
-0.268, -1.273e-6
-0.278, -8.846e-7
-0.224, -3.526e-7
-0.170, -1.158e-7
-0.116, 1.562e-8
-0.062, 8.898e-8
-0.008, 1.364e-7
0.046, 1.736e-7
0.100, 9.212e-7
0.154, 3.538e-7
0.208, 3.579e-7
0.262, 4.396e-7
0.316, 5.631e-7
0.370, 7.163e-7
0.424, 8.856e-7
0.478, 1.062e-6
0.468, 5.979e-7
0.414, 2.858e-7
0.360, 1.258e-7
0.306, 2.698e-8
0.252, -4.172e-8
0.198, -1.021e-7
0.144, -1.622e-7
0.090, -2.279e-7
0.036, -3.065e-7
-0.018, -7.010e-7
-0.072, -7.087e-7
-0.126, -7.522e-7
-0.180, -8.546e-7
-0.234, -1.078e-6
-0.288, -1.401e-6
-0.258, -6.199e-7
-0.204, -2.426e-7
-0.150, -5.459e-8
-0.096, 4.848e-8
-0.042, 1.103e-7
0.012, 1.519e-7
0.066, 1.865e-7
0.120, 6.972e-7
0.174, 3.387e-7
0.228, 3.781e-7
0.282, 4.747e-7
0.336, 6.079e-7
0.390, 7.651e-7
0.444, 9.367e-7
0.498, 1.111e-6
0.448, 4.432e-7
0.394, 2.099e-7
0.340, 8.064e-8
0.286, -3.057e-9
0.232, -6.616e-8
0.178, -1.255e-7
0.124, -1.851e-7
0.070, -2.530e-7
0.016, -3.489e-7
-0.038, -9.773e-7
-0.092, -7.684e-7
-0.146, -8.871e-7
-0.200, -9.141e-7
-0.254, -1.164e-6
-0.292, -1.125e-6
-0.238, -4.353e-7
-0.184, -1.538e-7
-0.130, -6.920e-9
-0.076, 7.648e-8
-0.022, 1.283e-7
0.032, 1.653e-7
0.086, 3.720e-7
0.140, 3.924e-7
0.194, 3.407e-7
0.248, 4.039e-7
0.302, 5.127e-7
0.356, 6.545e-7
0.410, 8.171e-7
0.464, 9.889e-7
0.482, 7.169e-7
0.428, 3.305e-7
0.374, 1.506e-7
0.320, 4.351e-8
0.266, -2.943e-8
0.212, -8.923e-8
0.158, -1.473e-7
0.104, -2.086e-7
0.050, -2.790e-7
-0.004, -4.530e-7
-0.058, -7.181e-7
-0.112, -7.222e-7
-0.166, -7.994e-7
-0.220, -9.830e-7
-0.274, -1.275e-6
-0.298, -1.455e-6