File: Data/2022-03-23 MQ HCF/CV-Carbon-NiHCF-3.txt
Mar. 22, 2022   12:13:54
Cyclic Voltammetry
File: d:\mq\20220322-pba stability\cv-carbon-nihcf-3.txt
Data Source:  Experiment
Instrument Model:  CHI840D
Header:
Note:

Init E (V) = 0
High E (V) = 0.8
Low E (V) = 0
Init P/N = P
Scan Rate (V/s) = 0.05
Segment = 100
Sample Interval (V) = 0.001
Quiet Time (sec) = 2
Sensitivity (A/V) = 1e-4

Segment 1:
Ep = 0.468V
ip = 5.520e-5A
Ah = 1.218e-4C

Segment 2:
Ep = 0.283V
ip = -3.618e-5A
Ah = -8.151e-5C

Segment 3:
Ep = 0.467V
ip = 5.533e-5A
Ah = 1.219e-4C

Segment 4:
Ep = 0.283V
ip = -3.651e-5A
Ah = -8.193e-5C

Segment 5:
Ep = 0.467V
ip = 5.530e-5A
Ah = 1.219e-4C

Segment 6:
Ep = 0.283V
ip = -3.664e-5A
Ah = -8.216e-5C

Segment 7:
Ep = 0.467V
ip = 5.530e-5A
Ah = 1.219e-4C

Segment 8:
Ep = 0.283V
ip = -3.675e-5A
Ah = -8.237e-5C

Segment 9:
Ep = 0.467V
ip = 5.529e-5A
Ah = 1.220e-4C

Segment 10:
Ep = 0.283V
ip = -3.683e-5A
Ah = -8.256e-5C

Segment 11:
Ep = 0.467V
ip = 5.529e-5A
Ah = 1.219e-4C

Segment 12:
Ep = 0.283V
ip = -3.686e-5A
Ah = -8.276e-5C

Segment 13:
Ep = 0.467V
ip = 5.535e-5A
Ah = 1.219e-4C

Segment 14:
Ep = 0.283V
ip = -3.690e-5A
Ah = -8.291e-5C

Segment 15:
Ep = 0.467V
ip = 5.536e-5A
Ah = 1.219e-4C

Segment 16:
Ep = 0.283V
ip = -3.695e-5A
Ah = -8.306e-5C

Segment 17:
Ep = 0.467V
ip = 5.537e-5A
Ah = 1.219e-4C

Segment 18:
Ep = 0.283V
ip = -3.698e-5A
Ah = -8.322e-5C

Segment 19:
Ep = 0.467V
ip = 5.540e-5A
Ah = 1.219e-4C

Segment 20:
Ep = 0.283V
ip = -3.704e-5A
Ah = -8.339e-5C

Segment 21:
Ep = 0.467V
ip = 5.542e-5A
Ah = 1.219e-4C

Segment 22:
Ep = 0.283V
ip = -3.708e-5A
Ah = -8.355e-5C

Segment 23:
Ep = 0.467V
ip = 5.541e-5A
Ah = 1.219e-4C

Segment 24:
Ep = 0.283V
ip = -3.715e-5A
Ah = -8.369e-5C

Segment 25:
Ep = 0.467V
ip = 5.541e-5A
Ah = 1.219e-4C

Segment 26:
Ep = 0.283V
ip = -3.768e-5A
Ah = -8.507e-5C

Segment 27:
Ep = 0.467V
ip = 5.542e-5A
Ah = 1.218e-4C

Segment 28:
Ep = 0.283V
ip = -3.773e-5A
Ah = -8.522e-5C

Segment 29:
Ep = 0.467V
ip = 5.544e-5A
Ah = 1.218e-4C

Segment 30:
Ep = 0.283V
ip = -3.777e-5A
Ah = -8.536e-5C

Segment 31:
Ep = 0.467V
ip = 5.546e-5A
Ah = 1.218e-4C

Segment 32:
Ep = 0.284V
ip = -3.792e-5A
Ah = -8.474e-5C

Segment 33:
Ep = 0.467V
ip = 5.545e-5A
Ah = 1.218e-4C

Segment 34:
Ep = 0.283V
ip = -3.786e-5A
Ah = -8.563e-5C

Segment 35:
Ep = 0.467V
ip = 5.546e-5A
Ah = 1.218e-4C

Segment 36:
Ep = 0.283V
ip = -3.792e-5A
Ah = -8.577e-5C

Segment 37:
Ep = 0.467V
ip = 5.546e-5A
Ah = 1.218e-4C

Segment 38:
Ep = 0.283V
ip = -3.796e-5A
Ah = -8.590e-5C

Segment 39:
Ep = 0.467V
ip = 5.546e-5A
Ah = 1.218e-4C

Segment 40:
Ep = 0.284V
ip = -3.811e-5A
Ah = -8.525e-5C

Segment 41:
Ep = 0.467V
ip = 5.547e-5A
Ah = 1.217e-4C

Segment 42:
Ep = 0.284V
ip = -3.815e-5A
Ah = -8.539e-5C

Segment 43:
Ep = 0.467V
ip = 5.549e-5A
Ah = 1.217e-4C

Segment 44:
Ep = 0.284V
ip = -3.818e-5A
Ah = -8.551e-5C

Segment 45:
Ep = 0.467V
ip = 5.550e-5A
Ah = 1.217e-4C

Segment 46:
Ep = 0.284V
ip = -3.822e-5A
Ah = -8.562e-5C

Segment 47:
Ep = 0.467V
ip = 5.549e-5A
Ah = 1.217e-4C

Segment 48:
Ep = 0.284V
ip = -3.827e-5A
Ah = -8.574e-5C

Segment 49:
Ep = 0.467V
ip = 5.548e-5A
Ah = 1.217e-4C

Segment 50:
Ep = 0.284V
ip = -3.831e-5A
Ah = -8.586e-5C

Segment 51:
Ep = 0.467V
ip = 5.549e-5A
Ah = 1.217e-4C

Segment 52:
Ep = 0.284V
ip = -3.835e-5A
Ah = -8.597e-5C

Segment 53:
Ep = 0.467V
ip = 5.550e-5A
Ah = 1.216e-4C

Segment 54:
Ep = 0.284V
ip = -3.836e-5A
Ah = -8.607e-5C

Segment 55:
Ep = 0.467V
ip = 5.550e-5A
Ah = 1.216e-4C

Segment 56:
Ep = 0.284V
ip = -3.838e-5A
Ah = -8.618e-5C

Segment 57:
Ep = 0.467V
ip = 5.552e-5A
Ah = 1.216e-4C

Segment 58:
Ep = 0.284V
ip = -3.842e-5A
Ah = -8.630e-5C

Segment 59:
Ep = 0.467V
ip = 5.553e-5A
Ah = 1.216e-4C

Segment 60:
Ep = 0.284V
ip = -3.845e-5A
Ah = -8.641e-5C

Segment 61:
Ep = 0.467V
ip = 5.553e-5A
Ah = 1.215e-4C

Segment 62:
Ep = 0.284V
ip = -3.848e-5A
Ah = -8.651e-5C

Segment 63:
Ep = 0.467V
ip = 5.553e-5A
Ah = 1.215e-4C

Segment 64:
Ep = 0.284V
ip = -3.851e-5A
Ah = -8.660e-5C

Segment 65:
Ep = 0.467V
ip = 5.554e-5A
Ah = 1.215e-4C

Segment 66:
Ep = 0.284V
ip = -3.856e-5A
Ah = -8.670e-5C

Segment 67:
Ep = 0.467V
ip = 5.551e-5A
Ah = 1.215e-4C

Segment 68:
Ep = 0.284V
ip = -3.859e-5A
Ah = -8.678e-5C

Segment 69:
Ep = 0.467V
ip = 5.550e-5A
Ah = 1.215e-4C

Segment 70:
Ep = 0.284V
ip = -3.862e-5A
Ah = -8.687e-5C

Segment 71:
Ep = 0.467V
ip = 5.549e-5A
Ah = 1.214e-4C

Segment 72:
Ep = 0.284V
ip = -3.912e-5A
Ah = -8.814e-5C

Segment 73:
Ep = 0.467V
ip = 5.548e-5A
Ah = 1.214e-4C

Segment 74:
Ep = 0.285V
ip = -3.913e-5A
Ah = -8.823e-5C

Segment 75:
Ep = 0.466V
ip = 5.548e-5A
Ah = 1.214e-4C

Segment 76:
Ep = 0.286V
ip = -3.926e-5A
Ah = -8.755e-5C

Segment 77:
Ep = 0.466V
ip = 5.547e-5A
Ah = 1.213e-4C

Segment 78:
Ep = 0.286V
ip = -3.929e-5A
Ah = -8.765e-5C

Segment 79:
Ep = 0.466V
ip = 5.549e-5A
Ah = 1.213e-4C

Segment 80:
Ep = 0.286V
ip = -3.930e-5A
Ah = -8.775e-5C

Segment 81:
Ep = 0.466V
ip = 5.548e-5A
Ah = 1.213e-4C

Segment 82:
Ep = 0.286V
ip = -3.932e-5A
Ah = -8.783e-5C

Segment 83:
Ep = 0.466V
ip = 5.549e-5A
Ah = 1.212e-4C

Segment 84:
Ep = 0.286V
ip = -3.933e-5A
Ah = -8.791e-5C

Segment 85:
Ep = 0.466V
ip = 5.550e-5A
Ah = 1.212e-4C

Segment 86:
Ep = 0.286V
ip = -3.934e-5A
Ah = -8.801e-5C

Segment 87:
Ep = 0.466V
ip = 5.551e-5A
Ah = 1.212e-4C

Segment 88:
Ep = 0.286V
ip = -3.935e-5A
Ah = -8.809e-5C

Segment 89:
Ep = 0.466V
ip = 5.551e-5A
Ah = 1.212e-4C

Segment 90:
Ep = 0.286V
ip = -3.938e-5A
Ah = -8.818e-5C

Segment 91:
Ep = 0.466V
ip = 5.552e-5A
Ah = 1.211e-4C

Segment 92:
Ep = 0.286V
ip = -3.939e-5A
Ah = -8.825e-5C

Segment 93:
Ep = 0.466V
ip = 5.551e-5A
Ah = 1.211e-4C

Segment 94:
Ep = 0.286V
ip = -3.939e-5A
Ah = -8.832e-5C

Segment 95:
Ep = 0.466V
ip = 5.552e-5A
Ah = 1.211e-4C

Segment 96:
Ep = 0.286V
ip = -3.941e-5A
Ah = -8.839e-5C

Segment 97:
Ep = 0.466V
ip = 5.551e-5A
Ah = 1.211e-4C

Segment 98:
Ep = 0.286V
ip = -3.991e-5A
Ah = -8.967e-5C

Segment 99:
Ep = 0.466V
ip = 5.549e-5A
Ah = 1.210e-4C

Segment 100:
Ep = 0.286V
ip = -3.991e-5A
Ah = -8.973e-5C

Potential/V, Current/A

0.000, -7.667e-7
0.054, -2.503e-7
0.108, -1.383e-8
0.162, 5.579e-7
0.216, 2.703e-6
0.270, 9.486e-6
0.324, 2.514e-5
0.378, 4.855e-5
0.432, 7.032e-5
0.486, 7.434e-5
0.540, 3.686e-5
0.594, 1.074e-5
0.648, 4.762e-6
0.702, 2.808e-6
0.756, 1.962e-6
0.790, 1.229e-6
0.736, 7.243e-7
0.682, 3.693e-7
0.628, -2.012e-7
0.574, -1.892e-6
0.520, -7.210e-6
0.466, -1.761e-5
0.412, -3.293e-5
0.358, -5.343e-5
0.304, -7.055e-5
0.250, -6.499e-5
0.196, -2.437e-5
0.142, -8.339e-6
0.088, -4.066e-6
0.034, -2.560e-6
0.020, -1.304e-6
0.074, -7.024e-7
0.128, -2.466e-7
0.182, 7.914e-7
0.236, 4.276e-6
0.290, 1.409e-5
0.344, 3.343e-5
0.398, 5.778e-5
0.452, 7.518e-5
0.506, 6.499e-5
0.560, 2.177e-5
0.614, 7.385e-6
0.668, 3.685e-6
0.722, 2.321e-6
0.776, 1.697e-6
0.770, 9.361e-7
0.716, 5.486e-7
0.662, 1.765e-7
0.608, -6.255e-7
0.554, -3.237e-6
0.500, -1.050e-5
0.446, -2.240e-5
0.392, -4.007e-5
0.338, -6.073e-5
0.284, -7.262e-5
0.230, -5.131e-5
0.176, -1.575e-5
0.122, -6.229e-6
0.068, -3.379e-6
0.014, -2.293e-6
0.040, -1.057e-6
0.094, -5.616e-7
0.148, -6.296e-9
0.202, 1.633e-6
0.256, 6.911e-6
0.310, 2.018e-5
0.364, 4.240e-5
0.418, 6.592e-5
0.472, 7.624e-5
0.526, 4.837e-5
0.580, 1.366e-5
0.634, 5.477e-6
0.688, 3.026e-6
0.742, 2.020e-6
0.796, 1.547e-6
0.750, 7.591e-7
0.696, 4.153e-7
0.642, -4.037e-8
0.588, -1.255e-6
0.534, -5.232e-6
0.480, -1.437e-5
0.426, -2.811e-5
0.372, -4.773e-5
0.318, -6.706e-5
0.264, -7.033e-5
0.210, -3.415e-5
0.156, -1.073e-5
0.102, -4.833e-6
0.048, -2.876e-6
0.006, -1.630e-6
0.060, -8.548e-7
0.114, -3.994e-7
0.168, 3.756e-7
0.222, 2.948e-6
0.276, 1.066e-5
0.330, 2.758e-5
0.384, 5.156e-5
0.438, 7.226e-5
0.492, 7.198e-5
0.546, 3.057e-5
0.600, 9.243e-6
0.654, 4.261e-6
0.708, 2.553e-6
0.762, 1.800e-6
0.784, 1.064e-6
0.730, 6.241e-7
0.676, 2.784e-7
0.622, -3.328e-7
0.568, -2.217e-6
0.514, -8.003e-6
0.460, -1.879e-5
0.406, -3.479e-5
0.352, -5.545e-5
0.298, -7.135e-5
0.244, -6.166e-5
0.190, -2.144e-5
0.136, -7.696e-6
0.082, -3.894e-6
0.028, -2.515e-6
0.026, -1.250e-6
0.080, -6.819e-7
0.134, -2.030e-7
0.188, 9.799e-7
0.242, 4.934e-6
0.296, 1.574e-5
0.350, 3.604e-5
0.404, 6.033e-5
0.458, 7.587e-5
0.512, 6.037e-5
0.566, 1.861e-5
0.620, 6.651e-6
0.674, 3.429e-6
0.728, 2.205e-6
0.782, 1.632e-6
0.764, 8.620e-7
0.710, 4.931e-7
0.656, 1.111e-7
0.602, -7.786e-7
0.548, -3.708e-6
0.494, -1.149e-5
0.440, -2.388e-5
0.386, -4.221e-5
0.332, -6.262e-5
0.278, -7.233e-5
0.224, -4.603e-5
0.170, -1.402e-5
0.116, -5.799e-6
0.062, -3.242e-6
0.008, -2.249e-6
0.046, -1.007e-6
0.100, -5.272e-7
0.154, 7.929e-8
0.208, 1.944e-6
0.262, 7.869e-6
0.316, 2.220e-5
0.370, 4.507e-5
0.424, 6.794e-5
0.478, 7.548e-5
0.532, 4.254e-5
0.586, 1.200e-5
0.640, 5.040e-6
0.694, 2.860e-6
0.748, 1.943e-6
0.798, 1.291e-6
0.744, 7.089e-7
0.690, 3.689e-7
0.636, -1.146e-7
0.582, -1.480e-6
0.528, -5.912e-6
0.474, -1.552e-5
0.420, -2.991e-5
0.366, -4.997e-5
0.312, -6.846e-5
0.258, -6.829e-5
0.204, -2.965e-5
0.150, -9.724e-6
0.096, -4.557e-6
0.042, -2.782e-6
0.012, -1.505e-6
0.066, -8.126e-7
0.120, -3.570e-7
0.174, 5.126e-7
0.228, 3.408e-6
0.282, 1.195e-5
0.336, 2.990e-5
0.390, 5.410e-5
0.444, 7.352e-5
0.498, 6.924e-5
0.552, 2.627e-5
0.606, 8.329e-6
0.660, 3.975e-6
0.714, 2.436e-6
0.768, 1.740e-6
0.778, 9.903e-7
0.724, 5.833e-7
0.670, 2.320e-7
0.616, -4.378e-7
0.562, -2.569e-6
0.508, -8.909e-6
0.454, -2.014e-5
0.400, -3.689e-5
0.346, -5.761e-5
0.292, -7.190e-5
0.238, -5.735e-5
0.184, -1.879e-5
0.130, -7.086e-6
0.076, -3.706e-6
0.022, -2.450e-6
0.032, -1.183e-6
0.086, -6.453e-7
0.140, -1.410e-7
0.194, 1.202e-6
0.248, 5.643e-6
0.302, 1.743e-5
0.356, 3.856e-5
0.410, 6.263e-5
0.464, 7.612e-5
0.518, 5.541e-5
0.572, 1.620e-5
0.626, 6.093e-6
0.680, 3.245e-6
0.734, 2.118e-6
0.788, 1.590e-6
0.758, 8.135e-7
0.704, 4.582e-7
0.650, 5.314e-8
0.596, -9.489e-7
0.542, -4.239e-6
0.488, -1.255e-5
0.434, -2.552e-5
0.380, -4.446e-5
0.326, -6.447e-5
0.272, -7.154e-5
0.218, -4.060e-5
0.164, -1.252e-5
0.110, -5.404e-6
0.056, -3.111e-6
0.002, -2.200e-6
0.052, -9.546e-7
0.106, -4.861e-7
0.160, 1.794e-7
0.214, 2.293e-6
0.268, 8.894e-6
0.322, 2.428e-5
0.376, 4.767e-5
0.430, 6.971e-5
0.484, 7.423e-5
0.538, 3.710e-5
0.592, 1.068e-5
0.646, 4.678e-6
0.700, 2.720e-6
0.754, 1.878e-6
0.792, 1.168e-6
0.738, 6.722e-7
0.684, 3.323e-7
0.630, -1.940e-7
0.576, -1.731e-6
0.522, -6.662e-6
0.468, -1.677e-5
0.414, -3.185e-5
0.360, -5.224e-5
0.306, -6.970e-5
0.252, -6.558e-5
0.198, -2.572e-5
0.144, -8.834e-6
0.090, -4.292e-6
0.036, -2.688e-6
0.018, -1.402e-6
0.072, -7.644e-7
0.126, -3.063e-7
0.180, 6.763e-7
0.234, 3.951e-6
0.288, 1.336e-5
0.342, 3.231e-5
0.396, 5.662e-5
0.450, 7.455e-5
0.504, 6.584e-5
0.558, 2.257e-5
0.612, 7.539e-6
0.666, 3.728e-6
0.720, 2.331e-6
0.774, 1.694e-6
0.772, 9.354e-7
0.718, 5.452e-7
0.664, 1.851e-7
0.610, -5.591e-7
0.556, -2.961e-6
0.502, -9.862e-6
0.448, -2.159e-5
0.394, -3.906e-5
0.340, -5.971e-5
0.286, -7.211e-5
0.232, -5.244e-5
0.178, -1.653e-5
0.124, -6.532e-6
0.070, -3.524e-6
0.016, -2.381e-6
0.038, -1.116e-6
0.092, -6.033e-7
0.146, -6.563e-8
0.200, 1.460e-6
0.254, 6.444e-6
0.308, 1.924e-5
0.362, 4.113e-5
0.416, 6.480e-5
0.470, 7.600e-5
0.524, 4.999e-5
0.578, 1.417e-5
0.632, 5.603e-6
0.686, 3.071e-6
0.740, 2.038e-6
0.794, 1.551e-6
0.752, 7.666e-7
0.698, 4.231e-7
0.644, -1.006e-8
0.590, -1.132e-6
0.536, -4.833e-6
0.482, -1.367e-5
0.428, -2.725e-5
0.374, -4.673e-5
0.320, -6.617e-5
0.266, -7.024e-5
0.212, -3.544e-5
0.158, -1.124e-5
0.104, -5.046e-6
0.050, -2.986e-6
0.004, -1.735e-6
0.058, -9.012e-7
0.112, -4.398e-7
0.166, 2.983e-7
0.220, 2.700e-6
0.274, 1.004e-5
0.328, 2.649e-5
0.382, 5.029e-5
0.436, 7.135e-5
0.490, 7.240e-5
0.544, 3.199e-5
0.598, 9.539e-6
0.652, 4.347e-6
0.706, 2.591e-6
0.760, 1.818e-6
0.786, 1.085e-6
0.732, 6.340e-7
0.678, 2.927e-7
0.624, -2.804e-7
0.570, -2.024e-6
0.516, -7.476e-6
0.462, -1.806e-5
0.408, -3.389e-5
0.354, -5.447e-5
0.300, -7.067e-5
0.246, -6.222e-5
0.192, -2.238e-5
0.138, -8.037e-6
0.084, -4.045e-6
0.030, -2.600e-6
0.024, -1.309e-6
0.078, -7.174e-7
0.132, -2.454e-7
0.186, 8.636e-7
0.240, 4.581e-6
0.294, 1.493e-5
0.348, 3.481e-5
0.402, 5.910e-5
0.456, 7.531e-5
0.510, 6.165e-5
0.564, 1.942e-5
0.618, 6.836e-6
0.672, 3.496e-6
0.726, 2.234e-6
0.780, 1.649e-6
0.766, 8.785e-7
0.712, 5.063e-7
0.658, 1.357e-7
0.604, -6.932e-7
0.550, -3.415e-6
0.496, -1.087e-5
0.442, -2.310e-5
0.388, -4.128e-5
0.334, -6.170e-5
0.280, -7.196e-5
0.226, -4.720e-5
0.172, -1.463e-5
0.118, -6.035e-6
0.064, -3.357e-6
0.010, -2.315e-6
0.044, -1.050e-6
0.098, -5.594e-7
0.152, 2.213e-8
0.206, 1.765e-6
0.260, 7.371e-6
0.314, 2.122e-5
0.368, 4.379e-5
0.422, 6.687e-5
0.476, 7.544e-5
0.530, 4.423e-5
0.584, 1.245e-5
0.638, 5.159e-6
0.692, 2.911e-6
0.746, 1.965e-6
0.800, 1.477e-6
0.746, 7.217e-7
0.692, 3.831e-7
0.638, -7.683e-8
0.584, -1.343e-6
0.530, -5.490e-6
0.476, -1.484e-5
0.422, -2.906e-5
0.368, -4.901e-5
0.314, -6.768e-5
0.260, -6.842e-5
0.206, -3.081e-5
0.152, -1.013e-5
0.098, -4.719e-6
0.044, -2.869e-6
0.010, -1.579e-6
0.064, -8.485e-7
0.118, -3.883e-7
0.172, 4.337e-7
0.226, 3.163e-6
0.280, 1.130e-5
0.334, 2.879e-5
0.388, 5.287e-5
0.442, 7.275e-5
0.496, 6.990e-5
0.550, 2.745e-5
0.604, 8.571e-6
0.658, 4.055e-6
0.712, 2.471e-6
0.766, 1.761e-6
0.780, 1.011e-6
0.726, 5.947e-7
0.672, 2.496e-7
0.618, -3.784e-7
0.564, -2.354e-6
0.510, -8.357e-6
0.456, -1.941e-5
0.402, -3.599e-5
0.348, -5.666e-5
0.294, -7.132e-5
0.240, -5.815e-5
0.186, -1.959e-5
0.132, -7.368e-6
0.078, -3.836e-6
0.024, -2.519e-6
0.030, -1.230e-6
0.084, -6.744e-7
0.138, -1.828e-7
0.192, 1.076e-6
0.246, 5.260e-6
0.300, 1.659e-5
0.354, 3.733e-5
0.408, 6.144e-5
0.462, 7.571e-5
0.516, 5.688e-5
0.570, 1.687e-5
0.624, 6.249e-6
0.678, 3.297e-6
0.732, 2.149e-6
0.786, 1.606e-6
0.760, 8.278e-7
0.706, 4.699e-7
0.652, 8.028e-8
0.598, -8.505e-7
0.544, -3.921e-6
0.490, -1.193e-5
0.436, -2.473e-5
0.382, -4.354e-5
0.328, -6.359e-5
0.274, -7.133e-5
0.220, -4.184e-5
0.166, -1.303e-5
0.112, -5.606e-6
0.058, -3.209e-6
0.004, -2.257e-6
0.050, -9.927e-7
0.104, -5.150e-7
0.158, 1.210e-7
0.212, 2.100e-6
0.266, 8.371e-6
0.320, 2.329e-5
0.374, 4.643e-5
0.428, 6.877e-5
0.482, 7.438e-5
0.536, 3.863e-5
0.590, 1.103e-5
0.644, 4.776e-6
0.698, 2.761e-6
0.752, 1.900e-6
0.794, 1.198e-6
0.740, 6.833e-7
0.686, 3.456e-7
0.632, -1.539e-7
0.578, -1.585e-6
0.524, -6.215e-6
0.470, -1.606e-5
0.416, -3.098e-5
0.362, -5.127e-5
0.308, -6.896e-5
0.254, -6.596e-5
0.200, -2.677e-5
0.146, -9.181e-6
0.092, -4.436e-6
0.038, -2.763e-6
0.016, -1.462e-6
0.070, -7.968e-7
0.124, -3.367e-7
0.178, 5.903e-7
0.232, 3.677e-6
0.286, 1.269e-5
0.340, 3.122e-5
0.394, 5.546e-5
0.448, 7.391e-5
0.502, 6.669e-5
0.556, 2.351e-5
0.610, 7.730e-6
0.664, 3.790e-6
0.718, 2.360e-6
0.772, 1.708e-6
0.774, 9.510e-7
0.720, 5.565e-7
0.666, 2.025e-7
0.612, -4.946e-7
0.558, -2.730e-6
0.504, -9.295e-6
0.450, -2.083e-5
0.396, -3.812e-5
0.342, -5.877e-5
0.288, -7.166e-5
0.234, -5.354e-5
0.180, -1.723e-5
0.126, -6.769e-6
0.072, -3.633e-6
0.018, -2.441e-6
0.036, -1.154e-6
0.090, -6.291e-7
0.144, -1.058e-7
0.198, 1.329e-6
0.252, 6.052e-6
0.306, 1.841e-5
0.360, 3.998e-5
0.414, 6.377e-5
0.468, 7.577e-5
0.522, 5.143e-5
0.576, 1.466e-5
0.630, 5.720e-6
0.684, 3.117e-6
0.738, 2.060e-6
0.792, 1.564e-6
0.754, 7.796e-7
0.700, 4.342e-7
0.646, 1.916e-8
0.592, -1.030e-6
0.538, -4.484e-6
0.484, -1.302e-5
0.430, -2.643e-5
0.376, -4.576e-5
0.322, -6.532e-5
0.268, -7.023e-5
0.214, -3.674e-5
0.160, -1.169e-5
0.106, -5.217e-6
0.052, -3.072e-6
0.002, -1.858e-6
0.056, -9.342e-7
0.110, -4.668e-7
0.164, 2.368e-7
0.218, 2.491e-6
0.272, 9.489e-6
0.326, 2.548e-5
0.380, 4.910e-5
0.434, 7.050e-5
0.488, 7.275e-5
0.542, 3.331e-5
0.596, 9.813e-6
0.650, 4.428e-6
0.704, 2.625e-6
0.758, 1.835e-6
0.788, 1.109e-6
0.734, 6.451e-7
0.680, 3.075e-7
0.626, -2.379e-7
0.572, -1.857e-6
0.518, -6.995e-6
0.464, -1.734e-5
0.410, -3.298e-5
0.356, -5.350e-5
0.302, -7.000e-5
0.248, -6.282e-5
0.194, -2.332e-5
0.140, -8.350e-6
0.086, -4.177e-6
0.032, -2.666e-6
0.022, -1.360e-6
0.076, -7.462e-7
0.130, -2.776e-7
0.184, 7.649e-7
0.238, 4.266e-6
0.292, 1.419e-5
0.346, 3.367e-5
0.400, 5.795e-5
0.454, 7.476e-5
0.508, 6.277e-5
0.562, 2.021e-5
0.616, 7.011e-6
0.670, 3.556e-6
0.724, 2.263e-6
0.778, 1.664e-6
0.768, 8.959e-7
0.714, 5.165e-7
0.660, 1.572e-7
0.606, -6.198e-7
0.552, -3.151e-6
0.498, -1.028e-5
0.444, -2.233e-5
0.390, -4.032e-5
0.336, -6.077e-5
0.282, -7.160e-5
0.228, -4.843e-5
0.174, -1.524e-5
0.120, -6.256e-6
0.066, -3.461e-6
0.012, -2.372e-6
0.042, -1.089e-6
0.096, -5.867e-7
0.150, -2.561e-8
0.204, 1.609e-6
0.258, 6.907e-6
0.312, 2.030e-5
0.366, 4.257e-5
0.420, 6.585e-5
0.474, 7.534e-5
0.528, 4.583e-5
0.582, 1.289e-5
0.636, 5.274e-6
0.690, 2.955e-6
0.744, 1.986e-6
0.798, 1.529e-6
0.748, 7.347e-7
0.694, 3.978e-7
0.640, -4.523e-8
0.586, -1.226e-6
0.532, -5.110e-6
0.478, -1.417e-5
0.424, -2.823e-5
0.370, -4.804e-5
0.316, -6.687e-5
0.262, -6.854e-5
0.208, -3.197e-5
0.154, -1.053e-5
0.100, -4.885e-6
0.046, -2.949e-6
0.008, -1.647e-6
0.062, -8.804e-7
0.116, -4.171e-7
0.170, 3.590e-7
0.224, 2.921e-6
0.278, 1.069e-5
0.332, 2.772e-5
0.386, 5.166e-5
0.440, 7.196e-5
0.494, 7.047e-5
0.548, 2.866e-5
0.602, 8.820e-6
0.656, 4.133e-6
0.710, 2.505e-6
0.764, 1.780e-6
0.782, 1.034e-6
0.728, 6.063e-7
0.674, 2.664e-7
0.620, -3.291e-7
0.566, -2.163e-6
0.512, -7.843e-6
0.458, -1.869e-5
0.404, -3.506e-5
0.350, -5.568e-5
0.296, -7.074e-5
0.242, -5.897e-5
0.188, -2.039e-5
0.134, -7.642e-6
0.080, -3.954e-6
0.026, -2.586e-6
0.028, -1.275e-6
0.082, -7.014e-7
0.136, -2.183e-7
0.190, 9.644e-7
0.244, 4.919e-6
0.298, 1.582e-5
0.352, 3.619e-5
0.406, 6.034e-5
0.460, 7.528e-5
0.514, 5.815e-5
0.568, 1.750e-5
0.622, 6.392e-6
0.676, 3.345e-6
0.730, 2.174e-6
0.784, 1.620e-6
0.762, 8.433e-7
0.708, 4.813e-7
0.654, 1.042e-7
0.600, -7.632e-7
0.546, -3.629e-6
0.492, -1.131e-5
0.438, -2.392e-5
0.384, -4.255e-5
0.330, -6.268e-5
0.276, -7.111e-5
0.222, -4.316e-5
0.168, -1.357e-5
0.114, -5.806e-6
0.060, -3.305e-6
0.006, -2.312e-6
0.048, -1.029e-6
0.102, -5.413e-7
0.156, 6.919e-8
0.210, 1.931e-6
0.264, 7.886e-6
0.318, 2.235e-5
0.372, 4.524e-5
0.426, 6.783e-5
0.480, 7.445e-5
0.534, 4.010e-5
0.588, 1.137e-5
0.642, 4.867e-6
0.696, 2.800e-6
0.750, 1.921e-6
0.796, 1.233e-6
0.742, 6.940e-7
0.688, 3.577e-7
0.634, -1.166e-7
0.580, -1.452e-6
0.526, -5.797e-6
0.472, -1.538e-5
0.418, -3.010e-5
0.364, -5.028e-5
0.310, -6.820e-5
0.256, -6.628e-5
0.202, -2.787e-5
0.148, -9.543e-6
0.094, -4.587e-6
0.040, -2.839e-6
0.014, -1.521e-6
0.068, -8.312e-7
0.122, -3.672e-7
0.176, 5.048e-7
0.230, 3.408e-6
0.284, 1.204e-5
0.338, 3.011e-5
0.392, 5.426e-5
0.446, 7.322e-5
0.500, 6.747e-5
0.554, 2.452e-5
0.608, 7.938e-6
0.662, 3.858e-6
0.716, 2.392e-6
0.770, 1.726e-6
0.776, 9.700e-7
0.722, 5.685e-7
0.668, 2.215e-7
0.614, -4.352e-7
0.560, -2.520e-6
0.506, -8.755e-6
0.452, -2.009e-5
0.398, -3.718e-5
0.344, -5.781e-5
0.290, -7.117e-5
0.236, -5.454e-5
0.182, -1.794e-5
0.128, -7.020e-6
0.074, -3.746e-6
0.020, -2.505e-6
0.034, -1.199e-6
0.088, -6.570e-7
0.142, -1.487e-7
0.196, 1.199e-6
0.250, 5.660e-6
0.304, 1.757e-5
0.358, 3.877e-5
0.412, 6.267e-5
0.466, 7.544e-5
0.520, 5.293e-5
0.574, 1.524e-5
0.628, 5.858e-6
0.682, 3.176e-6
0.736, 2.089e-6
0.790, 1.580e-6
0.756, 7.950e-7
0.702, 4.465e-7
0.648, 4.720e-8
0.594, -9.346e-7
0.540, -4.164e-6
0.486, -1.241e-5
0.432, -2.562e-5
0.378, -4.480e-5
0.324, -6.446e-5
0.270, -7.014e-5
0.216, -3.799e-5
0.162, -1.216e-5
0.108, -5.401e-6
0.054, -3.159e-6
0.000, -2.200e-6
0.054, -9.707e-7
0.108, -4.970e-7
0.162, 1.746e-7
0.216, 2.291e-6
0.270, 8.946e-6
0.324, 2.448e-5
0.378, 4.786e-5
0.432, 6.958e-5
0.486, 7.300e-5
0.540, 3.478e-5
0.594, 1.014e-5
0.648, 4.525e-6
0.702, 2.666e-6
0.756, 1.857e-6
0.790, 1.138e-6
0.736, 6.585e-7
0.682, 3.220e-7
0.628, -1.966e-7
0.574, -1.704e-6
0.520, -6.554e-6
0.466, -1.666e-5
0.412, -3.209e-5
0.358, -5.253e-5
0.304, -6.932e-5
0.250, -6.331e-5
0.196, -2.426e-5
0.142, -8.669e-6
0.088, -4.316e-6
0.034, -2.739e-6
0.020, -1.415e-6
0.074, -7.782e-7
0.128, -3.139e-7
0.182, 6.739e-7
0.236, 3.958e-6
0.290, 1.347e-5
0.344, 3.253e-5
0.398, 5.675e-5
0.452, 7.415e-5
0.506, 6.382e-5
0.560, 2.110e-5
0.614, 7.212e-6
0.668, 3.624e-6
0.722, 2.295e-6
0.776, 1.681e-6
0.770, 9.158e-7
0.716, 5.300e-7
0.662, 1.776e-7
0.608, -5.543e-7
0.554, -2.914e-6
0.500, -9.727e-6
0.446, -2.159e-5
0.392, -3.938e-5
0.338, -5.985e-5
0.284, -7.121e-5
0.230, -4.955e-5
0.176, -1.585e-5
0.122, -6.484e-6
0.068, -3.566e-6
0.014, -2.432e-6
0.040, -1.130e-6
0.094, -6.135e-7
0.148, -7.039e-8
0.202, 1.460e-6
0.256, 6.476e-6
0.310, 1.941e-5
0.364, 4.136e-5
0.418, 6.481e-5
0.472, 7.518e-5
0.526, 4.741e-5
0.580, 1.336e-5
0.634, 5.393e-6
0.688, 3.001e-6
0.742, 2.012e-6
0.796, 1.544e-6
0.750, 7.494e-7
0.696, 4.109e-7
0.642, -1.650e-8
0.588, -1.120e-6
0.534, -4.756e-6
0.480, -1.354e-5
0.426, -2.740e-5
0.372, -4.706e-5
0.318, -6.605e-5
0.264, -6.861e-5
0.210, -3.318e-5
0.156, -1.095e-5
0.102, -5.053e-6
0.048, -3.031e-6
0.006, -1.726e-6
0.060, -9.138e-7
0.114, -4.490e-7
0.168, 2.941e-7
0.222, 2.699e-6
0.276, 1.010e-5
0.330, 2.668e-5
0.384, 5.044e-5
0.438, 7.113e-5
0.492, 7.095e-5
0.546, 2.993e-5
0.600, 9.087e-6
0.654, 4.217e-6
0.708, 2.543e-6
0.762, 1.802e-6
0.784, 1.060e-6
0.730, 6.200e-7
0.676, 2.824e-7
0.622, -2.821e-7
0.568, -1.996e-6
0.514, -7.367e-6
0.460, -1.799e-5
0.406, -3.416e-5
0.352, -5.472e-5
0.298, -7.013e-5
0.244, -5.967e-5
0.190, -2.121e-5
0.136, -7.930e-6
0.082, -4.081e-6
0.028, -2.649e-6
0.026, -1.325e-6
0.080, -7.314e-7
0.134, -2.538e-7
0.188, 8.569e-7
0.242, 4.585e-6
0.296, 1.504e-5
0.350, 3.501e-5
0.404, 5.917e-5
0.458, 7.478e-5
0.512, 5.942e-5
0.566, 1.824e-5
0.620, 6.565e-6
0.674, 3.408e-6
0.728, 2.204e-6
0.782, 1.638e-6
0.764, 8.600e-7
0.710, 4.939e-7
0.656, 1.276e-7
0.602, -6.876e-7
0.548, -3.365e-6
0.494, -1.074e-5
0.440, -2.315e-5
0.386, -4.161e-5
0.332, -6.177e-5
0.278, -7.083e-5
0.224, -4.434e-5
0.170, -1.410e-5
0.116, -6.008e-6
0.062, -3.401e-6
0.008, -2.367e-6
0.046, -1.065e-6
0.100, -5.691e-7
0.154, 1.758e-8
0.208, 1.760e-6
0.262, 7.404e-6
0.316, 2.139e-5
0.370, 4.400e-5
0.424, 6.682e-5
0.478, 7.445e-5
0.532, 4.171e-5
0.586, 1.178e-5
0.640, 4.982e-6
0.694, 2.849e-6
0.748, 1.946e-6
0.798, 1.291e-6
0.744, 7.079e-7
0.690, 3.711e-7
0.636, -8.267e-8
0.582, -1.328e-6
0.528, -5.413e-6
0.474, -1.473e-5
0.420, -2.925e-5
0.366, -4.931e-5
0.312, -6.744e-5
0.258, -6.653e-5
0.204, -2.892e-5
0.150, -9.901e-6
0.096, -4.730e-6
0.042, -2.913e-6
0.012, -1.583e-6
0.066, -8.599e-7
0.120, -3.947e-7
0.174, 4.329e-7
0.228, 3.173e-6
0.282, 1.140e-5
0.336, 2.903e-5
0.390, 5.306e-5
0.444, 7.248e-5
0.498, 6.818e-5
0.552, 2.560e-5
0.606, 8.171e-6
0.660, 3.933e-6
0.714, 2.428e-6
0.768, 1.744e-6
0.778, 9.886e-7
0.724, 5.808e-7
0.670, 2.398e-7
0.616, -3.801e-7
0.562, -2.327e-6
0.508, -8.248e-6
0.454, -1.937e-5
0.400, -3.626e-5
0.346, -5.684e-5
0.292, -7.064e-5
0.238, -5.546e-5
0.184, -1.867e-5
0.130, -7.274e-6
0.076, -3.864e-6
0.022, -2.566e-6
0.032, -1.241e-6
0.086, -6.838e-7
0.140, -1.855e-7
0.194, 1.082e-6
0.248, 5.300e-6
0.302, 1.677e-5
0.356, 3.761e-5
0.410, 6.156e-5
0.464, 7.509e-5
0.518, 5.431e-5
0.572, 1.581e-5
0.626, 5.995e-6
0.680, 3.223e-6
0.734, 2.115e-6
0.788, 1.595e-6
0.758, 8.115e-7
0.704, 4.573e-7
0.650, 7.117e-8
0.596, -8.472e-7
0.542, -3.869e-6
0.488, -1.180e-5
0.434, -2.482e-5
0.380, -4.383e-5
0.326, -6.355e-5
0.272, -7.000e-5
0.218, -3.926e-5
0.164, -1.262e-5
0.110, -5.586e-6
0.056, -3.248e-6
0.002, -2.306e-6
0.052, -1.003e-6
0.106, -5.214e-7
0.160, 1.222e-7
0.214, 2.110e-6
0.268, 8.441e-6
0.322, 2.352e-5
0.376, 4.668e-5
0.430, 6.868e-5
0.484, 7.317e-5
0.538, 3.614e-5
0.592, 1.045e-5
0.646, 4.617e-6
0.700, 2.706e-6
0.754, 1.879e-6
0.792, 1.166e-6
0.738, 6.700e-7
0.684, 3.355e-7
0.630, -1.585e-7
0.576, -1.567e-6
0.522, -6.133e-6
0.468, -1.597e-5
0.414, -3.118e-5
0.360, -5.152e-5
0.306, -6.859e-5
0.252, -6.379e-5
0.198, -2.526e-5
0.144, -9.009e-6
0.090, -4.454e-6
0.036, -2.808e-6
0.018, -1.471e-6
0.072, -8.080e-7
0.126, -3.414e-7
0.180, 5.940e-7
0.234, 3.695e-6
0.288, 1.282e-5
0.342, 3.147e-5
0.396, 5.563e-5
0.450, 7.353e-5
0.504, 6.466e-5
0.558, 2.193e-5
0.612, 7.390e-6
0.666, 3.685e-6
0.720, 2.322e-6
0.774, 1.697e-6
0.772, 9.329e-7
0.718, 5.427e-7
0.664, 1.942e-7
0.610, -4.935e-7
0.556, -2.695e-6
0.502, -9.181e-6
0.448, -2.083e-5
0.394, -3.840e-5
0.340, -5.886e-5
0.287, -7.075e-5
0.233, -5.068e-5
0.179, -1.652e-5
0.125, -6.718e-6
0.071, -3.671e-6
0.017, -2.491e-6
0.037, -1.166e-6
0.091, -6.374e-7
0.145, -1.098e-7
0.199, 1.329e-6
0.253, 6.084e-6
0.307, 1.859e-5
0.361, 4.021e-5
0.415, 6.377e-5
0.469, 7.493e-5
0.523, 4.880e-5
0.577, 1.381e-5
0.631, 5.514e-6
0.685, 3.047e-6
0.739, 2.035e-6
0.793, 1.557e-6
0.753, 7.635e-7
0.699, 4.241e-7
0.645, 1.342e-8
0.591, -1.018e-6
0.537, -4.423e-6
0.483, -1.290e-5
0.429, -2.655e-5
0.375, -4.604e-5
0.321, -6.515e-5
0.267, -6.859e-5
0.213, -3.439e-5
0.159, -1.138e-5
0.105, -5.222e-6
0.051, -3.119e-6
0.003, -1.817e-6
0.057, -9.470e-7
0.111, -4.750e-7
0.165, 2.333e-7
0.219, 2.493e-6
0.273, 9.553e-6
0.327, 2.569e-5
0.381, 4.927e-5
0.435, 7.028e-5
0.489, 7.125e-5
0.543, 3.112e-5
0.597, 9.344e-6
0.651, 4.298e-6
0.705, 2.580e-6
0.759, 1.819e-6
0.787, 1.084e-6
0.733, 6.330e-7
0.679, 2.988e-7
0.625, -2.385e-7
0.571, -1.831e-6
0.517, -6.898e-6
0.463, -1.727e-5
0.409, -3.322e-5
0.355, -5.368e-5
0.301, -6.943e-5
0.247, -6.027e-5
0.193, -2.209e-5
0.139, -8.236e-6
0.085, -4.211e-6
0.031, -2.718e-6
0.023, -1.374e-6
0.077, -7.574e-7
0.131, -2.839e-7
0.185, 7.610e-7
0.239, 4.271e-6
0.293, 1.430e-5
0.347, 3.388e-5
0.401, 5.801e-5
0.455, 7.421e-5
0.509, 6.044e-5
0.563, 1.893e-5
0.617, 6.727e-6
0.671, 3.469e-6
0.725, 2.233e-6
0.779, 1.655e-6
0.767, 8.777e-7
0.713, 5.064e-7
0.659, 1.498e-7
0.605, -6.142e-7
0.551, -3.106e-6
0.497, -1.016e-5
0.443, -2.236e-5
0.389, -4.059e-5
0.335, -6.078e-5
0.281, -7.043e-5
0.227, -4.547e-5
0.173, -1.469e-5
0.119, -6.233e-6
0.065, -3.507e-6
0.011, -2.426e-6
0.043, -1.105e-6
0.097, -5.963e-7
0.151, -3.037e-8
0.205, 1.608e-6
0.259, 6.941e-6
0.313, 2.047e-5
0.367, 4.278e-5
0.421, 6.578e-5
0.475, 7.430e-5
0.529, 4.310e-5
0.583, 1.217e-5
0.637, 5.092e-6
0.691, 2.895e-6
0.745, 1.966e-6
0.799, 1.482e-6
0.747, 7.207e-7
0.693, 3.864e-7
0.639, -4.929e-8
0.585, -1.209e-6
0.531, -5.034e-6
0.477, -1.406e-5
0.423, -2.836e-5
0.369, -4.827e-5
0.315, -6.656e-5
0.261, -6.657e-5
0.207, -2.997e-5
0.153, -1.030e-5
0.099, -4.905e-6
0.045, -3.001e-6
0.009, -1.651e-6
0.063, -8.940e-7
0.117, -4.266e-7
0.171, 3.560e-7
0.225, 2.922e-6
0.279, 1.076e-5
0.333, 2.793e-5
0.387, 5.179e-5
0.441, 7.162e-5
0.495, 6.867e-5
0.549, 2.668e-5
0.603, 8.409e-6
0.657, 4.014e-6
0.711, 2.465e-6
0.765, 1.765e-6
0.781, 1.011e-6
0.727, 5.945e-7
0.673, 2.582e-7
0.619, -3.282e-7
0.565, -2.133e-6
0.511, -7.738e-6
0.457, -1.863e-5
0.403, -3.529e-5
0.349, -5.579e-5
0.295, -6.996e-5
0.241, -5.610e-5
0.187, -1.941e-5
0.133, -7.565e-6
0.079, -3.996e-6
0.025, -2.636e-6
0.029, -1.292e-6
0.083, -7.138e-7
0.137, -2.254e-7
0.191, 9.582e-7
0.245, 4.919e-6
0.299, 1.592e-5
0.353, 3.636e-5
0.407, 6.033e-5
0.461, 7.456e-5
0.515, 5.559e-5
0.569, 1.643e-5
0.623, 6.153e-6
0.677, 3.274e-6
0.731, 2.146e-6
0.785, 1.609e-6
0.761, 8.255e-7
0.707, 4.698e-7
0.653, 9.703e-8
0.599, -7.542e-7
0.545, -3.573e-6
0.491, -1.119e-5
0.437, -2.398e-5
0.383, -4.281e-5
0.329, -6.258e-5
0.275, -6.965e-5
0.221, -4.027e-5
0.167, -1.313e-5
0.113, -5.803e-6
0.059, -3.358e-6
0.005, -2.368e-6
0.049, -1.044e-6
0.103, -5.520e-7
0.157, 6.126e-8
0.211, 1.917e-6
0.265, 7.894e-6
0.319, 2.246e-5
0.373, 4.534e-5
0.427, 6.760e-5
0.481, 7.317e-5
0.535, 3.758e-5
0.589, 1.080e-5
0.643, 4.723e-6
0.697, 2.751e-6
0.751, 1.905e-6
0.795, 1.198e-6
0.741, 6.836e-7
0.687, 3.495e-7
0.633, -1.162e-7
0.579, -1.429e-6
0.525, -5.710e-6
0.471, -1.528e-5
0.417, -3.028e-5
0.363, -5.049e-5
0.309, -6.774e-5
0.255, -6.388e-5
0.201, -2.614e-5
0.147, -9.379e-6
0.093, -4.626e-6
0.039, -2.897e-6
0.015, -1.533e-6
0.069, -8.429e-7
0.123, -3.743e-7
0.177, 4.964e-7
0.231, 3.391e-6
0.285, 1.208e-5
0.339, 3.025e-5
0.393, 5.429e-5
0.447, 7.272e-5
0.501, 6.543e-5
0.555, 2.288e-5
0.609, 7.607e-6
0.663, 3.764e-6
0.717, 2.360e-6
0.771, 1.716e-6
0.775, 9.522e-7
0.721, 5.584e-7
0.667, 2.163e-7
0.613, -4.292e-7
0.559, -2.478e-6
0.505, -8.634e-6
0.451, -2.007e-5
0.397, -3.742e-5
0.343, -5.786e-5
0.289, -7.016e-5
0.235, -5.137e-5
0.181, -1.714e-5
0.127, -6.973e-6
0.073, -3.797e-6
0.019, -2.562e-6
0.035, -1.217e-6
0.089, -6.701e-7
0.143, -1.582e-7
0.197, 1.185e-6
0.251, 5.649e-6
0.305, 1.765e-5
0.359, 3.890e-5
0.413, 6.256e-5
0.467, 7.455e-5
0.521, 5.021e-5
0.575, 1.432e-5
0.629, 5.648e-6
0.683, 3.103e-6
0.737, 2.064e-6
0.791, 1.572e-6
0.755, 7.808e-7
0.701, 4.375e-7
0.647, 4.274e-8
0.593, -9.197e-7
0.539, -4.097e-6
0.485, -1.229e-5
0.431, -2.570e-5
0.377, -4.502e-5
0.323, -6.423e-5
0.269, -6.835e-5
0.215, -3.534e-5
0.161, -1.182e-5
0.107, -5.416e-6
0.053, -3.217e-6
0.001, -1.954e-6
0.055, -9.873e-7
0.109, -5.078e-7
0.163, 1.652e-7
0.217, 2.271e-6
0.271, 8.955e-6
0.325, 2.459e-5
0.379, 4.794e-5
0.433, 6.926e-5
0.487, 7.147e-5
0.541, 3.241e-5
0.595, 9.635e-6
0.649, 4.389e-6
0.703, 2.620e-6
0.757, 1.841e-6
0.789, 1.110e-6
0.735, 6.468e-7
0.681, 3.142e-7
0.627, -1.963e-7
0.573, -1.675e-6
0.519, -6.455e-6
0.465, -1.657e-5
0.411, -3.227e-5
0.357, -5.267e-5
0.303, -6.867e-5
0.249, -6.055e-5
0.195, -2.285e-5
0.141, -8.545e-6
0.087, -4.360e-6
0.033, -2.796e-6
0.021, -1.434e-6
0.075, -7.944e-7
0.129, -3.241e-7
0.183, 6.610e-7
0.237, 3.937e-6
0.291, 1.352e-5
0.345, 3.266e-5
0.399, 5.673e-5
0.453, 7.352e-5
0.507, 6.143e-5
0.561, 1.969e-5
0.615, 6.905e-6
0.669, 3.535e-6
0.723, 2.263e-6
0.777, 1.670e-6
0.769, 8.975e-7
0.715, 5.194e-7
0.661, 1.715e-7
0.607, -5.460e-7
0.553, -2.866e-6
0.499, -9.606e-6
0.445, -2.159e-5
0.391, -3.960e-5
0.337, -5.981e-5
0.283, -6.994e-5
0.229, -4.630e-5
0.175, -1.522e-5
0.121, -6.463e-6
0.067, -3.621e-6
0.013, -2.492e-6
0.041, -1.148e-6
0.095, -6.273e-7
0.149, -8.010e-8
0.203, 1.442e-6
0.257, 6.466e-6
0.311, 1.950e-5
0.365, 4.148e-5
0.419, 6.464e-5
0.473, 7.408e-5
0.527, 4.457e-5
0.581, 1.259e-5
0.635, 5.209e-6
0.689, 2.943e-6
0.743, 1.989e-6
0.797, 1.536e-6
0.749, 7.346e-7
0.695, 4.023e-7
0.641, -1.908e-8
0.587, -1.103e-6
0.533, -4.682e-6
0.479, -1.342e-5
0.425, -2.750e-5
0.371, -4.725e-5
0.317, -6.570e-5
0.263, -6.650e-5
0.209, -3.088e-5
0.155, -1.068e-5
0.101, -5.076e-6
0.047, -3.093e-6
0.007, -1.731e-6
0.061, -9.315e-7
0.115, -4.598e-7
0.169, 2.834e-7
0.223, 2.679e-6
0.277, 1.013e-5
0.331, 2.682e-5
0.385, 5.052e-5
0.439, 7.074e-5
0.493, 6.911e-5
0.547, 2.777e-5
0.601, 8.645e-6
0.655, 4.092e-6
0.709, 2.499e-6
0.763, 1.785e-6
0.783, 1.035e-6
0.729, 6.078e-7
0.675, 2.741e-7
0.621, -2.808e-7
0.567, -1.964e-6
0.513, -7.262e-6
0.459, -1.792e-5
0.405, -3.434e-5
0.351, -5.479e-5
0.297, -6.929e-5
0.243, -5.661e-5
0.189, -2.010e-5
0.135, -7.843e-6
0.081, -4.127e-6
0.027, -2.709e-6
0.003, -2.375e-6