File: Data/2022-03-23 MQ HCF/CV-Carbon-CoHCF-3.txt
Mar. 22, 2022   17:25:20
Cyclic Voltammetry
File: d:\mq\20220322-pba stability\cv-carbon-cohcf-3.txt
Data Source:  Experiment
Instrument Model:  CHI840D
Header:
Note:

Init E (V) = 0.2
High E (V) = 1.2
Low E (V) = 0.2
Init P/N = P
Scan Rate (V/s) = 0.05
Segment = 100
Sample Interval (V) = 0.001
Quiet Time (sec) = 2
Sensitivity (A/V) = 1e-5

Segment 1:

Segment 2:

Segment 3:

Segment 4:

Segment 5:

Segment 6:

Segment 7:

Segment 8:

Segment 9:

Segment 10:

Segment 11:

Segment 12:

Segment 13:

Segment 14:

Segment 15:

Segment 16:

Segment 17:

Segment 18:

Segment 19:

Segment 20:

Segment 21:

Segment 22:

Segment 23:

Segment 24:

Segment 25:

Segment 26:

Segment 27:

Segment 28:

Segment 29:

Segment 30:

Segment 31:

Segment 32:

Segment 33:

Segment 34:

Segment 35:

Segment 36:

Segment 37:

Segment 38:

Segment 39:

Segment 40:

Segment 41:

Segment 42:

Segment 43:

Segment 44:

Segment 45:

Segment 46:

Segment 47:

Segment 48:

Segment 49:

Segment 50:

Segment 51:

Segment 52:

Segment 53:

Segment 54:

Segment 55:

Segment 56:

Segment 57:

Segment 58:

Segment 59:

Segment 60:

Segment 61:

Segment 62:

Segment 63:

Segment 64:

Segment 65:

Segment 66:

Segment 67:

Segment 68:

Segment 69:

Segment 70:

Segment 71:

Segment 72:

Segment 73:

Segment 74:

Segment 75:

Segment 76:

Segment 77:

Segment 78:

Segment 79:

Segment 80:

Segment 81:

Segment 82:

Segment 83:

Segment 84:

Segment 85:

Segment 86:

Segment 87:

Segment 88:

Segment 89:

Segment 90:

Segment 91:

Segment 92:

Segment 93:

Segment 94:

Segment 95:

Segment 96:

Segment 97:

Segment 98:

Segment 99:

Segment 100:

Potential/V, Current/A

0.200, -5.744e-6
0.267, -3.845e-6
0.334, -2.846e-6
0.401, -2.011e-6
0.468, -9.935e-7
0.535, 3.732e-7
0.602, 2.029e-6
0.669, 3.833e-6
0.736, 5.487e-6
0.803, 6.649e-6
0.870, 7.152e-6
0.937, 6.997e-6
1.004, 6.518e-6
1.071, 6.213e-6
1.138, 6.394e-6
1.195, 6.644e-6
1.128, 2.575e-6
1.061, 6.325e-7
0.994, -5.607e-7
0.927, -1.350e-6
0.860, -1.861e-6
0.793, -2.240e-6
0.726, -2.769e-6
0.659, -3.830e-6
0.592, -5.129e-6
0.525, -6.022e-6
0.458, -6.146e-6
0.391, -5.596e-6
0.324, -4.896e-6
0.257, -4.332e-6
0.210, -3.596e-6
0.277, -2.636e-6
0.344, -2.033e-6
0.411, -1.392e-6
0.478, -4.519e-7
0.545, 8.900e-7
0.612, 2.538e-6
0.679, 4.343e-6
0.746, 6.000e-6
0.813, 7.184e-6
0.880, 7.733e-6
0.947, 7.620e-6
1.014, 7.099e-6
1.081, 6.666e-6
1.148, 6.740e-6
1.185, 5.830e-6
1.118, 2.302e-6
1.051, 5.001e-7
0.984, -6.308e-7
0.917, -1.388e-6
0.850, -1.885e-6
0.783, -2.288e-6
0.716, -2.897e-6
0.649, -4.061e-6
0.582, -5.343e-6
0.515, -6.161e-6
0.448, -6.180e-6
0.381, -5.590e-6
0.314, -4.907e-6
0.247, -4.366e-6
0.220, -3.471e-6
0.287, -2.596e-6
0.354, -1.991e-6
0.421, -1.314e-6
0.488, -3.138e-7
0.555, 1.078e-6
0.622, 2.761e-6
0.689, 4.571e-6
0.756, 6.187e-6
0.823, 7.311e-6
0.890, 7.797e-6
0.957, 7.637e-6
1.024, 7.096e-6
1.091, 6.673e-6
1.158, 6.790e-6
1.175, 5.048e-6
1.108, 1.965e-6
1.041, 3.185e-7
0.974, -7.415e-7
0.907, -1.459e-6
0.840, -1.942e-6
0.773, -2.369e-6
0.706, -3.060e-6
0.639, -4.306e-6
0.572, -5.558e-6
0.505, -6.298e-6
0.438, -6.219e-6
0.371, -5.599e-6
0.304, -4.931e-6
0.237, -4.408e-6
0.230, -3.377e-6
0.297, -2.557e-6
0.364, -1.945e-6
0.431, -1.227e-6
0.498, -1.632e-7
0.565, 1.279e-6
0.632, 2.994e-6
0.699, 4.804e-6
0.766, 6.369e-6
0.833, 7.421e-6
0.900, 7.841e-6
0.967, 7.629e-6
1.034, 7.073e-6
1.101, 6.673e-6
1.168, 6.855e-6
1.165, 4.401e-6
1.098, 1.672e-6
1.031, 1.551e-7
0.964, -8.424e-7
0.897, -1.523e-6
0.830, -1.996e-6
0.763, -2.455e-6
0.696, -3.237e-6
0.629, -4.544e-6
0.562, -5.762e-6
0.495, -6.414e-6
0.428, -6.240e-6
0.361, -5.595e-6
0.294, -4.944e-6
0.227, -4.439e-6
0.240, -3.289e-6
0.307, -2.510e-6
0.374, -1.887e-6
0.441, -1.123e-6
0.508, 1.688e-9
0.575, 1.489e-6
0.642, 3.233e-6
0.709, 5.028e-6
0.776, 6.534e-6
0.843, 7.510e-6
0.910, 7.859e-6
0.977, 7.599e-6
1.044, 7.037e-6
1.111, 6.671e-6
1.178, 6.940e-6
1.155, 3.846e-6
1.088, 1.409e-6
1.021, 5.601e-9
0.954, -9.354e-7
0.887, -1.583e-6
0.820, -2.050e-6
0.753, -2.545e-6
0.686, -3.422e-6
0.619, -4.764e-6
0.552, -5.935e-6
0.485, -6.486e-6
0.418, -6.225e-6
0.351, -5.567e-6
0.284, -4.936e-6
0.217, -4.453e-6
0.250, -3.195e-6
0.317, -2.450e-6
0.384, -1.815e-6
0.451, -1.006e-6
0.518, 1.745e-7
0.585, 1.702e-6
0.652, 3.465e-6
0.719, 5.234e-6
0.786, 6.670e-6
0.853, 7.569e-6
0.920, 7.847e-6
0.987, 7.545e-6
1.054, 6.984e-6
1.121, 6.663e-6
1.188, 7.048e-6
1.145, 3.363e-6
1.078, 1.172e-6
1.011, -1.323e-7
0.944, -1.021e-6
0.877, -1.638e-6
0.810, -2.105e-6
0.743, -2.643e-6
0.676, -3.614e-6
0.609, -4.975e-6
0.542, -6.090e-6
0.475, -6.534e-6
0.408, -6.197e-6
0.341, -5.534e-6
0.274, -4.927e-6
0.207, -4.466e-6
0.260, -3.107e-6
0.327, -2.387e-6
0.394, -1.736e-6
0.461, -8.783e-7
0.528, 3.552e-7
0.595, 1.921e-6
0.662, 3.700e-6
0.729, 5.438e-6
0.796, 6.802e-6
0.863, 7.622e-6
0.930, 7.832e-6
0.997, 7.488e-6
1.064, 6.936e-6
1.131, 6.667e-6
1.198, 7.201e-6
1.135, 2.945e-6
1.068, 9.617e-7
1.001, -2.558e-7
0.934, -1.098e-6
0.867, -1.689e-6
0.800, -2.160e-6
0.733, -2.750e-6
0.666, -3.816e-6
0.599, -5.180e-6
0.532, -6.237e-6
0.465, -6.573e-6
0.398, -6.168e-6
0.331, -5.506e-6
0.264, -4.920e-6
0.203, -4.285e-6
0.270, -3.022e-6
0.337, -2.320e-6
0.404, -1.648e-6
0.471, -7.377e-7
0.538, 5.474e-7
0.605, 2.150e-6
0.672, 3.939e-6
0.739, 5.635e-6
0.806, 6.926e-6
0.873, 7.669e-6
0.940, 7.812e-6
1.007, 7.434e-6
1.074, 6.895e-6
1.141, 6.683e-6
1.192, 6.281e-6
1.125, 2.580e-6
1.058, 7.727e-7
0.991, -3.672e-7
0.924, -1.166e-6
0.857, -1.735e-6
0.790, -2.216e-6
0.723, -2.866e-6
0.656, -4.020e-6
0.589, -5.370e-6
0.522, -6.356e-6
0.455, -6.581e-6
0.388, -6.119e-6
0.321, -5.463e-6
0.254, -4.900e-6
0.213, -4.023e-6
0.280, -2.932e-6
0.347, -2.244e-6
0.414, -1.548e-6
0.481, -5.879e-7
0.548, 7.459e-7
0.615, 2.380e-6
0.682, 4.167e-6
0.749, 5.811e-6
0.816, 7.024e-6
0.883, 7.687e-6
0.950, 7.768e-6
1.017, 7.365e-6
1.084, 6.848e-6
1.151, 6.699e-6
1.182, 5.446e-6
1.115, 2.253e-6
1.048, 5.987e-7
0.981, -4.704e-7
0.914, -1.231e-6
0.847, -1.780e-6
0.780, -2.277e-6
0.713, -2.996e-6
0.646, -4.224e-6
0.579, -5.549e-6
0.512, -6.458e-6
0.445, -6.574e-6
0.378, -6.067e-6
0.311, -5.423e-6
0.244, -4.882e-6
0.223, -3.833e-6
0.290, -2.844e-6
0.357, -2.166e-6
0.424, -1.441e-6
0.491, -4.283e-7
0.558, 9.501e-7
0.625, 2.610e-6
0.692, 4.389e-6
0.759, 5.974e-6
0.826, 7.110e-6
0.893, 7.695e-6
0.960, 7.716e-6
1.027, 7.296e-6
1.094, 6.806e-6
1.161, 6.730e-6
1.172, 4.771e-6
1.105, 1.964e-6
1.038, 4.427e-7
0.971, -5.645e-7
0.904, -1.286e-6
0.837, -1.824e-6
0.770, -2.341e-6
0.703, -3.135e-6
0.636, -4.421e-6
0.569, -5.717e-6
0.502, -6.537e-6
0.435, -6.549e-6
0.368, -6.009e-6
0.301, -5.379e-6
0.234, -4.862e-6
0.233, -3.669e-6
0.300, -2.756e-6
0.367, -2.081e-6
0.434, -1.325e-6
0.501, -2.614e-7
0.568, 1.159e-6
0.635, 2.842e-6
0.702, 4.606e-6
0.769, 6.128e-6
0.836, 7.185e-6
0.903, 7.698e-6
0.970, 7.665e-6
1.037, 7.230e-6
1.104, 6.773e-6
1.171, 6.786e-6
1.162, 4.202e-6
1.095, 1.708e-6
1.028, 3.004e-7
0.961, -6.515e-7
0.894, -1.340e-6
0.827, -1.868e-6
0.760, -2.415e-6
0.693, -3.290e-6
0.626, -4.618e-6
0.559, -5.876e-6
0.492, -6.600e-6
0.425, -6.515e-6
0.358, -5.950e-6
0.291, -5.337e-6
0.224, -4.843e-6
0.243, -3.526e-6
0.310, -2.668e-6
0.377, -1.993e-6
0.444, -1.203e-6
0.511, -8.579e-8
0.578, 1.373e-6
0.645, 3.076e-6
0.712, 4.817e-6
0.779, 6.271e-6
0.846, 7.249e-6
0.913, 7.690e-6
0.980, 7.607e-6
1.047, 7.162e-6
1.114, 6.743e-6
1.181, 6.865e-6
1.152, 3.709e-6
1.085, 1.473e-6
1.018, 1.672e-7
0.951, -7.334e-7
0.884, -1.391e-6
0.817, -1.918e-6
0.750, -2.498e-6
0.683, -3.455e-6
0.616, -4.809e-6
0.549, -6.020e-6
0.482, -6.639e-6
0.415, -6.465e-6
0.348, -5.883e-6
0.281, -5.290e-6
0.214, -4.816e-6
0.253, -3.389e-6
0.320, -2.576e-6
0.387, -1.896e-6
0.454, -1.070e-6
0.521, 9.730e-8
0.588, 1.591e-6
0.655, 3.305e-6
0.722, 5.012e-6
0.789, 6.392e-6
0.856, 7.292e-6
0.923, 7.666e-6
0.990, 7.537e-6
1.057, 7.090e-6
1.124, 6.714e-6
1.191, 6.967e-6
1.142, 3.276e-6
1.075, 1.260e-6
1.008, 4.368e-8
0.941, -8.098e-7
0.874, -1.440e-6
0.807, -1.966e-6
0.740, -2.590e-6
0.673, -3.628e-6
0.606, -4.993e-6
0.539, -6.149e-6
0.472, -6.660e-6
0.405, -6.410e-6
0.338, -5.819e-6
0.271, -5.246e-6
0.204, -4.796e-6
0.263, -3.265e-6
0.330, -2.487e-6
0.397, -1.798e-6
0.464, -9.290e-7
0.531, 2.856e-7
0.598, 1.812e-6
0.665, 3.534e-6
0.732, 5.198e-6
0.799, 6.508e-6
0.866, 7.331e-6
0.933, 7.640e-6
1.000, 7.471e-6
1.067, 7.025e-6
1.134, 6.695e-6
1.199, 6.963e-6
1.132, 2.895e-6
1.065, 1.067e-6
0.998, -6.975e-8
0.931, -8.819e-7
0.864, -1.488e-6
0.797, -2.019e-6
0.730, -2.692e-6
0.663, -3.810e-6
0.596, -5.174e-6
0.529, -6.267e-6
0.462, -6.668e-6
0.395, -6.349e-6
0.328, -5.758e-6
0.261, -5.204e-6
0.206, -4.458e-6
0.273, -3.145e-6
0.340, -2.395e-6
0.407, -1.694e-6
0.474, -7.801e-7
0.541, 4.786e-7
0.608, 2.036e-6
0.675, 3.761e-6
0.742, 5.380e-6
0.809, 6.616e-6
0.876, 7.366e-6
0.943, 7.612e-6
1.010, 7.406e-6
1.077, 6.965e-6
1.144, 6.688e-6
1.189, 5.918e-6
1.122, 2.560e-6
1.055, 8.912e-7
0.988, -1.766e-7
0.921, -9.498e-7
0.854, -1.535e-6
0.787, -2.078e-6
0.720, -2.808e-6
0.653, -3.997e-6
0.586, -5.349e-6
0.519, -6.373e-6
0.452, -6.664e-6
0.385, -6.288e-6
0.318, -5.699e-6
0.251, -5.167e-6
0.216, -4.185e-6
0.283, -3.034e-6
0.350, -2.303e-6
0.417, -1.582e-6
0.484, -6.242e-7
0.551, 6.791e-7
0.618, 2.265e-6
0.685, 3.988e-6
0.752, 5.554e-6
0.819, 6.715e-6
0.886, 7.394e-6
0.953, 7.580e-6
1.020, 7.341e-6
1.087, 6.909e-6
1.154, 6.695e-6
1.179, 5.187e-6
1.112, 2.263e-6
1.045, 7.302e-7
0.978, -2.766e-7
0.911, -1.014e-6
0.844, -1.586e-6
0.777, -2.144e-6
0.710, -2.938e-6
0.643, -4.189e-6
0.576, -5.520e-6
0.509, -6.468e-6
0.442, -6.650e-6
0.375, -6.226e-6
0.308, -5.642e-6
0.241, -5.130e-6
0.226, -3.967e-6
0.293, -2.926e-6
0.360, -2.209e-6
0.427, -1.465e-6
0.494, -4.608e-7
0.561, 8.845e-7
0.628, 2.494e-6
0.695, 4.205e-6
0.762, 5.714e-6
0.829, 6.803e-6
0.896, 7.411e-6
0.963, 7.542e-6
1.030, 7.276e-6
1.097, 6.858e-6
1.164, 6.717e-6
1.169, 4.581e-6
1.102, 1.995e-6
1.035, 5.795e-7
0.968, -3.707e-7
0.901, -1.076e-6
0.834, -1.636e-6
0.767, -2.217e-6
0.700, -3.078e-6
0.633, -4.377e-6
0.566, -5.678e-6
0.499, -6.536e-6
0.432, -6.614e-6
0.365, -6.152e-6
0.298, -5.578e-6
0.231, -5.089e-6
0.236, -3.777e-6
0.303, -2.817e-6
0.370, -2.110e-6
0.437, -1.341e-6
0.504, -2.913e-7
0.571, 1.091e-6
0.638, 2.718e-6
0.705, 4.410e-6
0.772, 5.855e-6
0.839, 6.871e-6
0.906, 7.412e-6
0.973, 7.493e-6
1.040, 7.206e-6
1.107, 6.808e-6
1.174, 6.756e-6
1.159, 4.056e-6
1.092, 1.753e-6
1.025, 4.401e-7
0.958, -4.589e-7
0.891, -1.133e-6
0.824, -1.689e-6
0.757, -2.296e-6
0.690, -3.229e-6
0.623, -4.558e-6
0.556, -5.825e-6
0.489, -6.584e-6
0.422, -6.567e-6
0.355, -6.078e-6
0.288, -5.518e-6
0.221, -5.050e-6
0.246, -3.609e-6
0.313, -2.712e-6
0.380, -2.011e-6
0.447, -1.214e-6
0.514, -1.163e-7
0.581, 1.302e-6
0.648, 2.947e-6
0.715, 4.613e-6
0.782, 5.995e-6
0.849, 6.940e-6
0.916, 7.416e-6
0.983, 7.448e-6
1.050, 7.142e-6
1.117, 6.767e-6
1.184, 6.828e-6
1.149, 3.604e-6
1.082, 1.532e-6
1.015, 3.105e-7
0.948, -5.436e-7
0.881, -1.193e-6
0.814, -1.748e-6
0.747, -2.389e-6
0.680, -3.397e-6
0.613, -4.747e-6
0.546, -5.971e-6
0.479, -6.628e-6
0.412, -6.524e-6
0.345, -6.015e-6
0.278, -5.469e-6
0.211, -5.021e-6
0.256, -3.462e-6
0.323, -2.613e-6
0.390, -1.910e-6
0.457, -1.079e-6
0.524, 6.671e-8
0.591, 1.520e-6
0.658, 3.178e-6
0.725, 4.813e-6
0.792, 6.129e-6
0.859, 7.004e-6
0.926, 7.420e-6
0.993, 7.405e-6
1.060, 7.084e-6
1.127, 6.739e-6
1.194, 6.940e-6
1.139, 3.212e-6
1.072, 1.333e-6
1.005, 1.902e-7
0.938, -6.235e-7
0.871, -1.250e-6
0.804, -1.808e-6
0.737, -2.491e-6
0.670, -3.572e-6
0.603, -4.933e-6
0.536, -6.105e-6
0.469, -6.655e-6
0.402, -6.473e-6
0.335, -5.949e-6
0.268, -5.418e-6
0.201, -4.990e-6
0.266, -3.322e-6
0.333, -2.513e-6
0.400, -1.804e-6
0.467, -9.359e-7
0.534, 2.541e-7
0.601, 1.740e-6
0.668, 3.405e-6
0.735, 5.001e-6
0.802, 6.251e-6
0.869, 7.057e-6
0.936, 7.413e-6
1.003, 7.357e-6
1.070, 7.025e-6
1.137, 6.715e-6
1.196, 6.521e-6
1.129, 2.861e-6
1.062, 1.149e-6
0.995, 7.643e-8
0.928, -6.996e-7
0.861, -1.306e-6
0.794, -1.873e-6
0.727, -2.604e-6
0.660, -3.753e-6
0.593, -5.111e-6
0.526, -6.222e-6
0.459, -6.663e-6
0.392, -6.413e-6
0.325, -5.883e-6
0.258, -5.369e-6
0.209, -4.525e-6
0.276, -3.190e-6
0.343, -2.411e-6
0.410, -1.693e-6
0.477, -7.854e-7
0.544, 4.455e-7
0.611, 1.959e-6
0.678, 3.626e-6
0.745, 5.177e-6
0.812, 6.361e-6
0.879, 7.101e-6
0.946, 7.400e-6
1.013, 7.307e-6
1.080, 6.970e-6
1.147, 6.704e-6
1.186, 5.659e-6
1.119, 2.549e-6
1.052, 9.804e-7
0.985, -2.900e-8
0.918, -7.717e-7
0.851, -1.362e-6
0.784, -1.943e-6
0.717, -2.728e-6
0.650, -3.939e-6
0.583, -5.286e-6
0.516, -6.328e-6
0.449, -6.661e-6
0.382, -6.352e-6
0.315, -5.821e-6
0.248, -5.325e-6
0.219, -4.247e-6
0.286, -3.067e-6
0.353, -2.311e-6
0.420, -1.578e-6
0.487, -6.292e-7
0.554, 6.424e-7
0.621, 2.183e-6
0.688, 3.846e-6
0.755, 5.346e-6
0.822, 6.466e-6
0.889, 7.140e-6
0.956, 7.385e-6
1.023, 7.257e-6
1.090, 6.918e-6
1.157, 6.706e-6
1.176, 4.993e-6
1.109, 2.266e-6
1.042, 8.235e-7
0.975, -1.304e-7
0.908, -8.406e-7
0.841, -1.420e-6
0.774, -2.018e-6
0.707, -2.863e-6
0.640, -4.126e-6
0.573, -5.454e-6
0.506, -6.419e-6
0.439, -6.645e-6
0.372, -6.287e-6
0.305, -5.760e-6
0.238, -5.281e-6
0.229, -4.019e-6
0.296, -2.950e-6
0.363, -2.211e-6
0.430, -1.458e-6
0.497, -4.668e-7
0.564, 8.460e-7
0.631, 2.409e-6
0.698, 4.060e-6
0.765, 5.506e-6
0.832, 6.557e-6
0.899, 7.169e-6
0.966, 7.363e-6
1.033, 7.206e-6
1.100, 6.870e-6
1.167, 6.728e-6
1.166, 4.436e-6
1.099, 2.016e-6
1.032, 6.788e-7
0.965, -2.241e-7
0.898, -9.068e-7
0.831, -1.480e-6
0.764, -2.101e-6
0.697, -3.012e-6
0.630, -4.316e-6
0.563, -5.621e-6
0.496, -6.498e-6
0.429, -6.626e-6
0.362, -6.230e-6
0.295, -5.707e-6
0.228, -5.245e-6
0.239, -3.828e-6
0.306, -2.839e-6
0.373, -2.112e-6
0.440, -1.335e-6
0.507, -2.981e-7
0.574, 1.054e-6
0.641, 2.640e-6
0.708, 4.275e-6
0.775, 5.666e-6
0.842, 6.650e-6
0.909, 7.203e-6
0.976, 7.347e-6
1.043, 7.161e-6
1.110, 6.831e-6
1.177, 6.779e-6
1.156, 3.960e-6
1.089, 1.791e-6
1.022, 5.438e-7
0.955, -3.142e-7
0.888, -9.734e-7
0.821, -1.543e-6
0.754, -2.195e-6
0.687, -3.174e-6
0.620, -4.507e-6
0.553, -5.782e-6
0.486, -6.567e-6
0.419, -6.602e-6
0.352, -6.173e-6
0.285, -5.659e-6
0.218, -5.213e-6
0.249, -3.657e-6
0.316, -2.732e-6
0.383, -2.010e-6
0.450, -1.206e-6
0.517, -1.223e-7
0.584, 1.267e-6
0.651, 2.870e-6
0.718, 4.482e-6
0.785, 5.814e-6
0.852, 6.736e-6
0.919, 7.229e-6
0.986, 7.328e-6
1.053, 7.118e-6
1.120, 6.800e-6
1.187, 6.865e-6
1.146, 3.545e-6
1.079, 1.585e-6
1.012, 4.188e-7
0.945, -4.005e-7
0.878, -1.038e-6
0.811, -1.612e-6
0.744, -2.298e-6
0.677, -3.348e-6
0.610, -4.698e-6
0.543, -5.933e-6
0.476, -6.618e-6
0.409, -6.567e-6
0.342, -6.115e-6
0.275, -5.609e-6
0.208, -5.182e-6
0.259, -3.502e-6
0.326, -2.627e-6
0.393, -1.905e-6
0.460, -1.070e-6
0.527, 5.972e-8
0.594, 1.482e-6
0.661, 3.097e-6
0.728, 4.679e-6
0.795, 5.949e-6
0.862, 6.806e-6
0.929, 7.243e-6
0.996, 7.297e-6
1.063, 7.067e-6
1.130, 6.770e-6
1.197, 6.976e-6
1.136, 3.173e-6
1.069, 1.390e-6
1.002, 2.996e-7
0.935, -4.830e-7
0.868, -1.103e-6
0.801, -1.683e-6
0.734, -2.410e-6
0.667, -3.523e-6
0.600, -4.881e-6
0.533, -6.064e-6
0.466, -6.642e-6
0.399, -6.514e-6
0.332, -6.046e-6
0.265, -5.553e-6
0.202, -4.962e-6
0.269, -3.353e-6
0.336, -2.519e-6
0.403, -1.795e-6
0.470, -9.264e-7
0.537, 2.445e-7
0.604, 1.698e-6
0.671, 3.320e-6
0.738, 4.864e-6
0.805, 6.073e-6
0.872, 6.868e-6
0.939, 7.252e-6
1.006, 7.266e-6
1.073, 7.019e-6
1.140, 6.751e-6
1.193, 6.241e-6
1.126, 2.844e-6
1.059, 1.213e-6
0.992, 1.865e-7
0.925, -5.635e-7
0.858, -1.168e-6
0.791, -1.759e-6
0.724, -2.534e-6
0.657, -3.708e-6
0.590, -5.064e-6
0.523, -6.187e-6
0.456, -6.659e-6
0.389, -6.462e-6
0.322, -5.984e-6
0.255, -5.504e-6
0.212, -4.562e-6
0.279, -3.215e-6
0.346, -2.413e-6
0.413, -1.682e-6
0.480, -7.763e-7
0.547, 4.340e-7
0.614, 1.915e-6
0.681, 3.539e-6
0.748, 5.040e-6
0.815, 6.187e-6
0.882, 6.921e-6
0.949, 7.252e-6
1.016, 7.229e-6
1.083, 6.971e-6
1.150, 6.741e-6
1.183, 5.475e-6
1.116, 2.547e-6
1.049, 1.049e-6
0.982, 8.027e-8
0.915, -6.397e-7
0.848, -1.233e-6
0.781, -1.838e-6
0.714, -2.667e-6
0.647, -3.895e-6
0.580, -5.242e-6
0.513, -6.297e-6
0.446, -6.663e-6
0.379, -6.407e-6
0.312, -5.924e-6
0.245, -5.456e-6
0.222, -4.282e-6
0.289, -3.083e-6
0.356, -2.308e-6
0.423, -1.564e-6
0.490, -6.206e-7
0.557, 6.290e-7
0.624, 2.137e-6
0.691, 3.755e-6
0.758, 5.209e-6
0.825, 6.300e-6
0.892, 6.972e-6
0.959, 7.253e-6
1.026, 7.196e-6
1.093, 6.929e-6
1.160, 6.752e-6
1.173, 4.866e-6
1.106, 2.283e-6
1.039, 8.984e-7
0.972, -2.008e-8
0.905, -7.128e-7
0.838, -1.298e-6
0.771, -1.925e-6
0.704, -2.813e-6
0.637, -4.087e-6
0.570, -5.416e-6
0.503, -6.396e-6
0.436, -6.658e-6
0.369, -6.353e-6
0.302, -5.868e-6
0.235, -5.417e-6
0.232, -4.055e-6
0.299, -2.963e-6
0.366, -2.205e-6
0.433, -1.444e-6
0.500, -4.592e-7
0.567, 8.309e-7
0.634, 2.361e-6
0.701, 3.968e-6
0.768, 5.370e-6
0.835, 6.399e-6
0.902, 7.015e-6
0.969, 7.247e-6
1.036, 7.159e-6
1.103, 6.889e-6
1.170, 6.778e-6
1.163, 4.342e-6
1.096, 2.039e-6
1.029, 7.558e-7
0.962, -1.168e-7
0.895, -7.844e-7
0.828, -1.365e-6
0.761, -2.017e-6
0.694, -2.966e-6
0.627, -4.276e-6
0.560, -5.581e-6
0.493, -6.475e-6
0.426, -6.637e-6
0.359, -6.291e-6
0.292, -5.810e-6
0.225, -5.373e-6
0.242, -3.852e-6
0.309, -2.843e-6
0.376, -2.100e-6
0.443, -1.317e-6
0.510, -2.916e-7
0.577, 1.034e-6
0.644, 2.583e-6
0.711, 4.173e-6
0.778, 5.522e-6
0.845, 6.488e-6
0.912, 7.048e-6
0.979, 7.234e-6
1.046, 7.118e-6
1.113, 6.849e-6
1.180, 6.828e-6
1.153, 3.887e-6
1.086, 1.819e-6
1.019, 6.205e-7
0.952, -2.085e-7
0.885, -8.532e-7
0.818, -1.437e-6
0.751, -2.117e-6
0.684, -3.128e-6
0.617, -4.459e-6
0.550, -5.735e-6
0.483, -6.532e-6
0.416, -6.603e-6
0.349, -6.226e-6
0.282, -5.749e-6
0.215, -5.327e-6
0.252, -3.667e-6
0.319, -2.725e-6
0.386, -1.990e-6
0.453, -1.186e-6
0.520, -1.187e-7
0.587, 1.240e-6
0.654, 2.803e-6
0.721, 4.367e-6
0.788, 5.658e-6
0.855, 6.563e-6
0.922, 7.069e-6
0.989, 7.212e-6
1.056, 7.072e-6
1.123, 6.812e-6
1.190, 6.905e-6
1.143, 3.486e-6
1.076, 1.616e-6
1.009, 4.963e-7
0.942, -2.942e-7
0.875, -9.219e-7
0.808, -1.507e-6
0.741, -2.226e-6
0.674, -3.301e-6
0.607, -4.647e-6
0.540, -5.883e-6
0.473, -6.580e-6
0.406, -6.568e-6
0.339, -6.166e-6
0.272, -5.697e-6
0.205, -5.293e-6
0.262, -3.505e-6
0.329, -2.615e-6
0.396, -1.884e-6
0.463, -1.050e-6
0.530, 6.013e-8
0.597, 1.451e-6
0.664, 3.025e-6
0.731, 4.560e-6
0.798, 5.796e-6
0.865, 6.641e-6
0.932, 7.095e-6
0.999, 7.197e-6
1.066, 7.035e-6
1.133, 6.791e-6
1.200, 7.014e-6
1.133, 3.137e-6
1.066, 1.430e-6
0.999, 3.787e-7
0.932, -3.792e-7
0.865, -9.923e-7
0.798, -1.587e-6
0.731, -2.348e-6
0.664, -3.485e-6
0.597, -4.839e-6
0.530, -6.026e-6
0.463, -6.621e-6
0.396, -6.535e-6
0.329, -6.114e-6
0.262, -5.654e-6
0.205, -4.927e-6
0.272, -3.359e-6
0.339, -2.510e-6
0.406, -1.775e-6
0.473, -9.081e-7
0.540, 2.439e-7
0.607, 1.667e-6
0.674, 3.250e-6
0.741, 4.751e-6
0.808, 5.930e-6
0.875, 6.719e-6
0.942, 7.122e-6
1.009, 7.184e-6
1.076, 7.001e-6
1.143, 6.780e-6
1.190, 6.019e-6
1.123, 2.825e-6
1.056, 1.260e-6
0.989, 2.682e-7
0.922, -4.618e-7
0.855, -1.064e-6
0.788, -1.672e-6
0.721, -2.481e-6
0.654, -3.672e-6
0.587, -5.026e-6
0.520, -6.154e-6
0.453, -6.644e-6
0.386, -6.490e-6
0.319, -6.055e-6
0.252, -5.605e-6
0.215, -4.565e-6
0.282, -3.216e-6
0.349, -2.401e-6
0.416, -1.660e-6
0.483, -7.589e-7
0.550, 4.312e-7
0.617, 1.884e-6
0.684, 3.467e-6
0.751, 4.929e-6
0.818, 6.051e-6
0.885, 6.784e-6
0.952, 7.137e-6
1.019, 7.163e-6
1.086, 6.964e-6
1.153, 6.780e-6
1.180, 5.324e-6
1.113, 2.543e-6
1.046, 1.100e-6
0.979, 1.613e-7
0.912, -5.418e-7
0.845, -1.136e-6
0.778, -1.761e-6
0.711, -2.623e-6
0.644, -3.862e-6
0.577, -5.207e-6
0.510, -6.269e-6
0.443, -6.656e-6
0.376, -6.445e-6
0.309, -6.002e-6
0.242, -5.563e-6
0.225, -4.294e-6
0.292, -3.085e-6
0.359, -2.295e-6
0.426, -1.543e-6
0.493, -6.048e-7
0.560, 6.243e-7
0.627, 2.102e-6
0.694, 3.682e-6
0.761, 5.098e-6
0.828, 6.168e-6
0.895, 6.843e-6
0.962, 7.150e-6
1.029, 7.141e-6
1.096, 6.931e-6
1.163, 6.797e-6
1.170, 4.754e-6
1.103, 2.288e-6
1.036, 9.506e-7
0.969, 5.978e-8
0.902, -6.193e-7
0.835, -1.209e-6
0.768, -1.855e-6
0.701, -2.774e-6
0.634, -4.055e-6
0.567, -5.384e-6
0.500, -6.369e-6
0.433, -6.656e-6
0.366, -6.394e-6
0.299, -5.949e-6
0.232, -5.521e-6
0.235, -4.062e-6
0.302, -2.959e-6
0.369, -2.189e-6
0.436, -1.421e-6
0.503, -4.449e-7
0.570, 8.231e-7
0.637, 2.323e-6
0.704, 3.894e-6
0.771, 5.263e-6
0.838, 6.276e-6
0.905, 6.897e-6
0.972, 7.159e-6
1.039, 7.119e-6
1.106, 6.901e-6
1.173, 6.837e-6
1.160, 4.264e-6
1.093, 2.055e-6
1.026, 8.111e-7
0.959, -3.753e-8
0.892, -6.951e-7
0.825, -1.282e-6
0.758, -1.958e-6
0.691, -2.936e-6
0.624, -4.248e-6
0.557, -5.555e-6
0.490, -6.455e-6
0.423, -6.646e-6
0.356, -6.343e-6
0.289, -5.898e-6
0.222, -5.484e-6
0.245, -3.862e-6
0.312, -2.840e-6
0.379, -2.084e-6
0.446, -1.296e-6
0.513, -2.783e-7
0.580, 1.026e-6
0.647, 2.546e-6
0.714, 4.101e-6
0.781, 5.421e-6
0.848, 6.378e-6
0.915, 6.945e-6
0.982, 7.162e-6
1.049, 7.092e-6
1.116, 6.873e-6
1.183, 6.903e-6
1.150, 3.836e-6
1.083, 1.844e-6
1.016, 6.789e-7
0.949, -1.311e-7
0.882, -7.694e-7
0.815, -1.361e-6
0.748, -2.068e-6
0.681, -3.107e-6
0.614, -4.441e-6
0.547, -5.721e-6
0.480, -6.528e-6
0.413, -6.629e-6
0.346, -6.293e-6
0.279, -5.849e-6
0.212, -5.448e-6
0.255, -3.681e-6
0.322, -2.724e-6
0.389, -1.976e-6
0.456, -1.166e-6
0.523, -1.070e-7
0.590, 1.232e-6
0.657, 2.768e-6
0.724, 4.302e-6
0.791, 5.571e-6
0.858, 6.472e-6
0.925, 6.989e-6
0.992, 7.163e-6
1.059, 7.068e-6
1.126, 6.854e-6
1.193, 7.004e-6
1.140, 3.460e-6
1.073, 1.649e-6
1.006, 5.552e-7
0.939, -2.210e-7
0.872, -8.440e-7
0.805, -1.442e-6
0.738, -2.186e-6
0.671, -3.286e-6
0.604, -4.633e-6
0.537, -5.875e-6
0.470, -6.584e-6
0.403, -6.604e-6
0.336, -6.240e-6
0.269, -5.801e-6
0.202, -5.415e-6
0.265, -3.515e-6
0.332, -2.610e-6
0.399, -1.866e-6
0.466, -1.029e-6
0.533, 7.077e-8
0.600, 1.441e-6
0.667, 2.988e-6
0.734, 4.493e-6
0.801, 5.710e-6
0.868, 6.554e-6
0.935, 7.022e-6
1.002, 7.155e-6
1.069, 7.037e-6
1.136, 6.838e-6
1.197, 6.717e-6
1.130, 3.122e-6
1.063, 1.466e-6
0.996, 4.386e-7
0.929, -3.057e-7
0.862, -9.169e-7
0.795, -1.524e-6
0.728, -2.312e-6
0.661, -3.468e-6
0.594, -4.822e-6
0.527, -6.013e-6
0.460, -6.621e-6
0.393, -6.568e-6
0.326, -6.184e-6
0.259, -5.752e-6
0.208, -4.908e-6
0.275, -3.361e-6
0.342, -2.498e-6
0.409, -1.753e-6
0.476, -8.866e-7
0.543, 2.519e-7
0.610, 1.653e-6
0.677, 3.206e-6
0.744, 4.675e-6
0.811, 5.837e-6
0.878, 6.626e-6
0.945, 7.045e-6
1.012, 7.141e-6
1.079, 7.005e-6
1.146, 6.831e-6
1.187, 5.855e-6
1.120, 2.815e-6
1.053, 1.297e-6
0.986, 3.278e-7
0.919, -3.886e-7
0.852, -9.889e-7
0.785, -1.610e-6
0.718, -2.446e-6
0.651, -3.652e-6
0.584, -5.003e-6
0.517, -6.134e-6
0.450, -6.640e-6
0.383, -6.522e-6
0.316, -6.124e-6
0.249, -5.700e-6
0.218, -4.561e-6
0.285, -3.213e-6
0.352, -2.385e-6
0.419, -1.636e-6
0.486, -7.372e-7
0.553, 4.364e-7
0.620, 1.865e-6
0.687, 3.417e-6
0.754, 4.848e-6
0.821, 5.957e-6
0.888, 6.688e-6
0.955, 7.060e-6
1.022, 7.121e-6
1.089, 6.970e-6
1.156, 6.831e-6
1.177, 5.199e-6
1.110, 2.539e-6
1.043, 1.139e-6
0.976, 2.231e-7
0.909, -4.677e-7
0.842, -1.063e-6
0.775, -1.703e-6
0.708, -2.592e-6
0.641, -3.840e-6
0.574, -5.185e-6
0.507, -6.250e-6
0.440, -6.654e-6
0.373, -6.479e-6
0.306, -6.073e-6
0.239, -5.659e-6
0.228, -4.292e-6
0.295, -3.078e-6
0.362, -2.277e-6
0.429, -1.518e-6
0.496, -5.843e-7
0.563, 6.274e-7
0.630, 2.080e-6
0.697, 3.629e-6
0.764, 5.019e-6
0.831, 6.073e-6
0.898, 6.753e-6
0.965, 7.079e-6
1.032, 7.107e-6
1.099, 6.942e-6
1.166, 6.855e-6
1.167, 4.660e-6
1.100, 2.291e-6
1.033, 9.917e-7
0.966, 1.213e-7
0.899, -5.470e-7
0.832, -1.140e-6
0.765, -1.805e-6
0.698, -2.749e-6
0.631, -4.034e-6
0.564, -5.363e-6
0.497, -6.352e-6
0.430, -6.658e-6
0.363, -6.433e-6
0.296, -6.020e-6
0.229, -5.617e-6
0.238, -4.060e-6
0.305, -2.949e-6
0.372, -2.168e-6
0.439, -1.395e-6
0.506, -4.251e-7
0.573, 8.236e-7
0.640, 2.297e-6
0.707, 3.835e-6
0.774, 5.178e-6
0.841, 6.180e-6
0.908, 6.808e-6
0.975, 7.090e-6
1.042, 7.087e-6
1.109, 6.915e-6
1.176, 6.900e-6
1.157, 4.191e-6
1.090, 2.064e-6
1.023, 8.537e-7
0.956, 2.449e-8
0.889, -6.249e-7
0.822, -1.219e-6
0.755, -1.912e-6
0.688, -2.913e-6
0.621, -4.227e-6
0.554, -5.533e-6
0.487, -6.436e-6
0.420, -6.650e-6
0.353, -6.384e-6
0.286, -5.970e-6
0.219, -5.577e-6
0.248, -3.856e-6
0.315, -2.826e-6
0.382, -2.060e-6
0.449, -1.269e-6
0.516, -2.611e-7
0.583, 1.023e-6
0.650, 2.515e-6
0.717, 4.039e-6
0.784, 5.335e-6
0.851, 6.285e-6
0.918, 6.861e-6
0.985, 7.101e-6
1.052, 7.070e-6
1.119, 6.895e-6
1.186, 6.978e-6
1.147, 3.783e-6
1.080, 1.859e-6
1.013, 7.244e-7
0.946, -6.990e-8
0.879, -7.029e-7
0.812, -1.301e-6
0.745, -2.028e-6
0.678, -3.087e-6
0.611, -4.420e-6
0.544, -5.698e-6
0.477, -6.510e-6
0.410, -6.635e-6
0.343, -6.334e-6
0.276, -5.920e-6
0.209, -5.540e-6
0.258, -3.671e-6
0.325, -2.706e-6
0.392, -1.950e-6
0.459, -1.138e-6
0.526, -9.095e-8
0.593, 1.224e-6
0.660, 2.731e-6
0.727, 4.232e-6
0.794, 5.480e-6
0.861, 6.375e-6
0.928, 6.903e-6
0.995, 7.102e-6
1.062, 7.045e-6
1.129, 6.876e-6
1.196, 7.083e-6
1.137, 3.416e-6
1.070, 1.665e-6
1.003, 6.002e-7
0.936, -1.603e-7
0.869, -7.784e-7
0.802, -1.384e-6
0.735, -2.150e-6
0.668, -3.266e-6
0.601, -4.610e-6
0.534, -5.849e-6
0.467, -6.563e-6
0.400, -6.610e-6
0.333, -6.281e-6
0.266, -5.871e-6
0.201, -5.388e-6
0.268, -3.503e-6
0.335, -2.590e-6
0.402, -1.839e-6
0.469, -1.002e-6
0.536, 8.361e-8
0.603, 1.430e-6
0.670, 2.948e-6
0.737, 4.422e-6
0.804, 5.621e-6
0.871, 6.465e-6
0.938, 6.944e-6
1.005, 7.104e-6
1.072, 7.024e-6
1.139, 6.869e-6
1.194, 6.469e-6
1.127, 3.094e-6
1.060, 1.488e-6
0.993, 4.842e-7
0.926, -2.476e-7
0.859, -8.549e-7
0.792, -1.474e-6
0.725, -2.283e-6
0.658, -3.453e-6
0.591, -4.803e-6
0.524, -5.994e-6
0.457, -6.610e-6
0.390, -6.585e-6
0.323, -6.235e-6
0.256, -5.829e-6
0.211, -4.875e-6
0.278, -3.349e-6
0.345, -2.477e-6
0.412, -1.725e-6
0.479, -8.592e-7
0.546, 2.635e-7
0.613, 1.641e-6
0.680, 3.166e-6
0.747, 4.607e-6
0.814, 5.755e-6
0.881, 6.546e-6
0.948, 6.978e-6
1.015, 7.101e-6
1.082, 7.000e-6
1.149, 6.869e-6
1.184, 5.701e-6
1.117, 2.798e-6
1.050, 1.322e-6
0.983, 3.731e-7
0.916, -3.322e-7
0.849, -9.328e-7
0.782, -1.565e-6
0.715, -2.424e-6
0.648, -3.639e-6
0.581, -4.988e-6
0.514, -6.119e-6
0.447, -6.634e-6
0.380, -6.544e-6
0.313, -6.179e-6
0.246, -5.780e-6
0.221, -4.542e-6
0.288, -3.200e-6
0.355, -2.363e-6
0.422, -1.607e-6
0.489, -7.122e-7
0.556, 4.460e-7
0.623, 1.851e-6
0.690, 3.374e-6
0.757, 4.780e-6
0.824, 5.877e-6
0.891, 6.614e-6
0.958, 7.000e-6
1.025, 7.089e-6
1.092, 6.973e-6
1.159, 6.881e-6
1.174, 5.088e-6
1.107, 2.532e-6
1.040, 1.167e-6
0.973, 2.687e-7
0.906, -4.139e-7
0.839, -1.011e-6
0.772, -1.664e-6
0.705, -2.574e-6
0.638, -3.828e-6
0.571, -5.168e-6
0.504, -6.231e-6
0.437, -6.646e-6
0.370, -6.501e-6
0.303, -6.126e-6
0.236, -5.735e-6
0.201, -5.554e-6