File: Data/2022-03-23 MQ HCF/CV-Carbon-CoHCF-2.txt
Mar. 22, 2022   16:47:09
Cyclic Voltammetry
File: d:\mq\20220322-pba stability\cv-carbon-cohcf-2.txt
Data Source:  Experiment
Instrument Model:  CHI840D
Header:
Note:

Init E (V) = 0.2
High E (V) = 1.2
Low E (V) = 0.2
Init P/N = P
Scan Rate (V/s) = 0.05
Segment = 100
Sample Interval (V) = 0.001
Quiet Time (sec) = 2
Sensitivity (A/V) = 1e-5

Segment 1:

Segment 2:

Segment 3:

Segment 4:

Segment 5:

Segment 6:

Segment 7:

Segment 8:

Segment 9:

Segment 10:

Segment 11:

Segment 12:

Segment 13:

Segment 14:

Segment 15:

Segment 16:

Segment 17:

Segment 18:

Segment 19:

Segment 20:

Segment 21:

Segment 22:

Segment 23:

Segment 24:

Segment 25:

Segment 26:

Segment 27:

Segment 28:

Segment 29:

Segment 30:

Segment 31:

Segment 32:

Segment 33:

Segment 34:

Segment 35:

Segment 36:

Segment 37:

Segment 38:

Segment 39:

Segment 40:

Segment 41:

Segment 42:

Segment 43:

Segment 44:

Segment 45:

Segment 46:

Segment 47:

Segment 48:

Segment 49:

Segment 50:

Segment 51:

Segment 52:

Segment 53:

Segment 54:

Segment 55:

Segment 56:

Segment 57:

Segment 58:

Segment 59:

Segment 60:

Segment 61:

Segment 62:

Segment 63:

Segment 64:

Segment 65:

Segment 66:

Segment 67:

Segment 68:

Segment 69:

Segment 70:

Segment 71:

Segment 72:

Segment 73:

Segment 74:

Segment 75:

Segment 76:

Segment 77:

Segment 78:

Segment 79:

Segment 80:

Segment 81:

Segment 82:

Segment 83:

Segment 84:

Segment 85:

Segment 86:

Segment 87:

Segment 88:

Segment 89:

Segment 90:

Segment 91:

Segment 92:

Segment 93:

Segment 94:

Segment 95:

Segment 96:

Segment 97:

Segment 98:

Segment 99:

Segment 100:

Potential/V, Current/A

0.200, -3.823e-6
0.267, -2.638e-6
0.334, -1.983e-6
0.401, -1.352e-6
0.468, -4.650e-7
0.535, 7.851e-7
0.602, 2.301e-6
0.669, 3.964e-6
0.736, 5.554e-6
0.803, 6.802e-6
0.870, 7.548e-6
0.937, 7.784e-6
1.004, 7.752e-6
1.071, 7.853e-6
1.138, 8.431e-6
1.195, 8.968e-6
1.128, 4.243e-6
1.061, 1.760e-6
0.994, 1.952e-7
0.927, -8.308e-7
0.860, -1.485e-6
0.793, -1.958e-6
0.726, -2.532e-6
0.659, -3.553e-6
0.592, -4.763e-6
0.525, -5.599e-6
0.458, -5.748e-6
0.391, -5.247e-6
0.324, -4.585e-6
0.257, -4.053e-6
0.210, -3.371e-6
0.277, -2.503e-6
0.344, -1.940e-6
0.411, -1.313e-6
0.478, -3.756e-7
0.545, 9.465e-7
0.612, 2.547e-6
0.679, 4.302e-6
0.746, 5.956e-6
0.813, 7.220e-6
0.880, 7.928e-6
0.947, 8.055e-6
1.014, 7.855e-6
1.081, 7.807e-6
1.148, 8.310e-6
1.185, 7.567e-6
1.118, 3.484e-6
1.051, 1.231e-6
0.984, -2.097e-7
0.917, -1.164e-6
0.850, -1.778e-6
0.783, -2.248e-6
0.716, -2.882e-6
0.649, -4.007e-6
0.582, -5.230e-6
0.515, -6.026e-6
0.448, -6.075e-6
0.381, -5.504e-6
0.314, -4.823e-6
0.247, -4.287e-6
0.220, -3.431e-6
0.287, -2.600e-6
0.354, -2.009e-6
0.421, -1.324e-6
0.488, -3.055e-7
0.555, 1.092e-6
0.622, 2.767e-6
0.689, 4.585e-6
0.756, 6.265e-6
0.823, 7.515e-6
0.890, 8.173e-6
0.957, 8.215e-6
1.024, 7.923e-6
1.091, 7.817e-6
1.158, 8.315e-6
1.175, 6.559e-6
1.108, 2.925e-6
1.041, 8.526e-7
0.974, -4.933e-7
0.907, -1.391e-6
0.840, -1.980e-6
0.773, -2.464e-6
0.706, -3.171e-6
0.639, -4.391e-6
0.572, -5.609e-6
0.505, -6.351e-6
0.438, -6.303e-6
0.371, -5.680e-6
0.304, -4.994e-6
0.237, -4.459e-6
0.230, -3.456e-6
0.297, -2.652e-6
0.364, -2.035e-6
0.431, -1.290e-6
0.498, -1.949e-7
0.565, 1.272e-6
0.632, 3.011e-6
0.699, 4.872e-6
0.766, 6.549e-6
0.833, 7.763e-6
0.900, 8.361e-6
0.967, 8.328e-6
1.034, 7.972e-6
1.101, 7.846e-6
1.168, 8.381e-6
1.165, 5.750e-6
1.098, 2.475e-6
1.031, 5.521e-7
0.964, -7.128e-7
0.897, -1.562e-6
0.830, -2.131e-6
0.763, -2.638e-6
0.696, -3.433e-6
0.629, -4.724e-6
0.562, -5.929e-6
0.495, -6.601e-6
0.428, -6.457e-6
0.361, -5.795e-6
0.294, -5.112e-6
0.227, -4.587e-6
0.240, -3.449e-6
0.307, -2.667e-6
0.374, -2.026e-6
0.441, -1.224e-6
0.508, -5.281e-8
0.575, 1.474e-6
0.642, 3.266e-6
0.709, 5.145e-6
0.776, 6.799e-6
0.843, 7.963e-6
0.910, 8.493e-6
0.977, 8.390e-6
1.044, 7.993e-6
1.111, 7.878e-6
1.178, 8.477e-6
1.155, 5.059e-6
1.088, 2.087e-6
1.021, 3.005e-7
0.954, -8.936e-7
0.887, -1.700e-6
0.820, -2.253e-6
0.753, -2.790e-6
0.686, -3.677e-6
0.619, -5.019e-6
0.552, -6.191e-6
0.485, -6.779e-6
0.418, -6.543e-6
0.351, -5.855e-6
0.284, -5.184e-6
0.217, -4.673e-6
0.250, -3.414e-6
0.317, -2.651e-6
0.384, -1.985e-6
0.451, -1.127e-6
0.518, 1.091e-7
0.585, 1.688e-6
0.652, 3.518e-6
0.719, 5.400e-6
0.786, 7.009e-6
0.853, 8.108e-6
0.920, 8.567e-6
0.987, 8.405e-6
1.054, 7.990e-6
1.121, 7.905e-6
1.188, 8.588e-6
1.145, 4.450e-6
1.078, 1.751e-6
1.011, 8.760e-8
0.944, -1.039e-6
0.877, -1.806e-6
0.810, -2.353e-6
0.743, -2.928e-6
0.676, -3.912e-6
0.609, -5.281e-6
0.542, -6.415e-6
0.475, -6.908e-6
0.408, -6.589e-6
0.341, -5.887e-6
0.274, -5.234e-6
0.207, -4.739e-6
0.260, -3.367e-6
0.327, -2.619e-6
0.394, -1.928e-6
0.461, -1.010e-6
0.528, 2.866e-7
0.595, 1.911e-6
0.662, 3.772e-6
0.729, 5.640e-6
0.796, 7.190e-6
0.863, 8.211e-6
0.930, 8.603e-6
0.997, 8.393e-6
1.064, 7.976e-6
1.131, 7.933e-6
1.198, 8.721e-6
1.135, 3.915e-6
1.068, 1.458e-6
1.001, -9.055e-8
0.934, -1.155e-6
0.867, -1.886e-6
0.800, -2.433e-6
0.733, -3.058e-6
0.666, -4.137e-6
0.599, -5.514e-6
0.532, -6.601e-6
0.465, -6.993e-6
0.398, -6.601e-6
0.331, -5.894e-6
0.264, -5.260e-6
0.203, -4.593e-6
0.270, -3.305e-6
0.337, -2.570e-6
0.404, -1.850e-6
0.471, -8.752e-7
0.538, 4.761e-7
0.605, 2.143e-6
0.672, 4.023e-6
0.739, 5.858e-6
0.806, 7.339e-6
0.873, 8.282e-6
0.940, 8.604e-6
1.007, 8.360e-6
1.074, 7.953e-6
1.141, 7.959e-6
1.192, 7.696e-6
1.125, 3.446e-6
1.058, 1.203e-6
0.991, -2.435e-7
0.924, -1.251e-6
0.857, -1.953e-6
0.790, -2.508e-6
0.723, -3.191e-6
0.656, -4.361e-6
0.589, -5.734e-6
0.522, -6.765e-6
0.455, -7.055e-6
0.388, -6.598e-6
0.321, -5.893e-6
0.254, -5.281e-6
0.213, -4.369e-6
0.280, -3.240e-6
0.347, -2.510e-6
0.414, -1.758e-6
0.481, -7.244e-7
0.548, 6.785e-7
0.615, 2.385e-6
0.682, 4.273e-6
0.749, 6.068e-6
0.816, 7.474e-6
0.883, 8.336e-6
0.950, 8.591e-6
1.017, 8.317e-6
1.084, 7.929e-6
1.151, 7.993e-6
1.182, 6.746e-6
1.115, 3.034e-6
1.048, 9.751e-7
0.981, -3.804e-7
0.914, -1.336e-6
0.847, -2.012e-6
0.780, -2.579e-6
0.713, -3.333e-6
0.646, -4.577e-6
0.579, -5.935e-6
0.512, -6.899e-6
0.445, -7.081e-6
0.378, -6.571e-6
0.311, -5.875e-6
0.244, -5.285e-6
0.223, -4.197e-6
0.290, -3.164e-6
0.357, -2.437e-6
0.424, -1.651e-6
0.491, -5.624e-7
0.558, 8.888e-7
0.625, 2.626e-6
0.692, 4.515e-6
0.759, 6.260e-6
0.826, 7.589e-6
0.893, 8.369e-6
0.960, 8.558e-6
1.027, 8.261e-6
1.094, 7.898e-6
1.161, 8.027e-6
1.172, 5.957e-6
1.105, 2.663e-6
1.038, 7.677e-7
0.971, -5.062e-7
0.904, -1.412e-6
0.837, -2.068e-6
0.770, -2.654e-6
0.703, -3.481e-6
0.636, -4.789e-6
0.569, -6.121e-6
0.502, -7.007e-6
0.435, -7.082e-6
0.368, -6.528e-6
0.301, -5.845e-6
0.234, -5.279e-6
0.233, -4.045e-6
0.300, -3.081e-6
0.367, -2.356e-6
0.434, -1.533e-6
0.501, -3.904e-7
0.568, 1.104e-6
0.635, 2.869e-6
0.702, 4.750e-6
0.769, 6.436e-6
0.836, 7.684e-6
0.903, 8.385e-6
0.970, 8.513e-6
1.037, 8.199e-6
1.104, 7.868e-6
1.171, 8.078e-6
1.162, 5.285e-6
1.095, 2.332e-6
1.028, 5.779e-7
0.961, -6.215e-7
0.894, -1.484e-6
0.827, -2.124e-6
0.760, -2.735e-6
0.693, -3.642e-6
0.626, -5.000e-6
0.559, -6.299e-6
0.492, -7.098e-6
0.425, -7.070e-6
0.358, -6.483e-6
0.291, -5.816e-6
0.224, -5.273e-6
0.243, -3.907e-6
0.310, -2.998e-6
0.377, -2.268e-6
0.444, -1.404e-6
0.511, -2.086e-7
0.578, 1.327e-6
0.645, 3.117e-6
0.712, 4.981e-6
0.779, 6.604e-6
0.846, 7.773e-6
0.913, 8.398e-6
0.980, 8.469e-6
1.047, 8.142e-6
1.114, 7.848e-6
1.181, 8.154e-6
1.152, 4.702e-6
1.085, 2.034e-6
1.018, 4.047e-7
0.951, -7.277e-7
0.884, -1.549e-6
0.817, -2.182e-6
0.750, -2.823e-6
0.683, -3.812e-6
0.616, -5.201e-6
0.549, -6.463e-6
0.482, -7.163e-6
0.415, -7.038e-6
0.348, -6.426e-6
0.281, -5.780e-6
0.214, -5.259e-6
0.253, -3.777e-6
0.320, -2.910e-6
0.387, -2.170e-6
0.454, -1.264e-6
0.521, -1.729e-8
0.588, 1.555e-6
0.655, 3.362e-6
0.722, 5.198e-6
0.789, 6.754e-6
0.856, 7.845e-6
0.923, 8.397e-6
0.990, 8.415e-6
1.057, 8.082e-6
1.124, 7.833e-6
1.191, 8.254e-6
1.142, 4.186e-6
1.075, 1.765e-6
1.008, 2.466e-7
0.941, -8.269e-7
0.874, -1.612e-6
0.807, -2.237e-6
0.740, -2.920e-6
0.673, -3.993e-6
0.606, -5.399e-6
0.539, -6.614e-6
0.472, -7.211e-6
0.405, -6.998e-6
0.338, -6.371e-6
0.271, -5.745e-6
0.204, -5.248e-6
0.263, -3.655e-6
0.330, -2.821e-6
0.397, -2.068e-6
0.464, -1.118e-6
0.531, 1.797e-7
0.598, 1.788e-6
0.665, 3.609e-6
0.732, 5.414e-6
0.799, 6.901e-6
0.866, 7.914e-6
0.933, 8.394e-6
1.000, 8.365e-6
1.067, 8.028e-6
1.134, 7.829e-6
1.199, 8.255e-6
1.132, 3.733e-6
1.065, 1.522e-6
0.998, 9.938e-8
0.931, -9.210e-7
0.864, -1.674e-6
0.797, -2.299e-6
0.730, -3.029e-6
0.663, -4.185e-6
0.596, -5.593e-6
0.529, -6.754e-6
0.462, -7.241e-6
0.395, -6.948e-6
0.328, -6.313e-6
0.261, -5.708e-6
0.206, -4.917e-6
0.273, -3.536e-6
0.340, -2.726e-6
0.407, -1.956e-6
0.474, -9.609e-7
0.541, 3.824e-7
0.608, 2.022e-6
0.675, 3.852e-6
0.742, 5.617e-6
0.809, 7.031e-6
0.876, 7.966e-6
0.943, 8.377e-6
1.010, 8.306e-6
1.077, 7.972e-6
1.144, 7.830e-6
1.189, 7.122e-6
1.122, 3.325e-6
1.055, 1.295e-6
0.988, -3.939e-8
0.921, -1.011e-6
0.854, -1.735e-6
0.787, -2.366e-6
0.720, -3.150e-6
0.653, -4.378e-6
0.586, -5.779e-6
0.519, -6.873e-6
0.452, -7.247e-6
0.385, -6.885e-6
0.318, -6.249e-6
0.251, -5.667e-6
0.216, -4.634e-6
0.283, -3.420e-6
0.350, -2.630e-6
0.417, -1.838e-6
0.484, -7.951e-7
0.551, 5.904e-7
0.618, 2.261e-6
0.685, 4.093e-6
0.752, 5.812e-6
0.819, 7.155e-6
0.886, 8.015e-6
0.953, 8.363e-6
1.020, 8.252e-6
1.087, 7.923e-6
1.154, 7.848e-6
1.179, 6.313e-6
1.112, 2.963e-6
1.045, 1.088e-6
0.978, -1.720e-7
0.911, -1.097e-6
0.844, -1.800e-6
0.777, -2.442e-6
0.710, -3.288e-6
0.643, -4.577e-6
0.576, -5.963e-6
0.509, -6.987e-6
0.442, -7.248e-6
0.375, -6.827e-6
0.308, -6.195e-6
0.241, -5.634e-6
0.226, -4.416e-6
0.293, -3.311e-6
0.360, -2.532e-6
0.427, -1.714e-6
0.494, -6.221e-7
0.561, 8.070e-7
0.628, 2.506e-6
0.695, 4.333e-6
0.762, 6.001e-6
0.829, 7.274e-6
0.896, 8.060e-6
0.963, 8.347e-6
1.030, 8.202e-6
1.097, 7.885e-6
1.164, 7.886e-6
1.169, 5.634e-6
1.102, 2.637e-6
1.035, 8.972e-7
0.968, -2.954e-7
0.901, -1.179e-6
0.834, -1.864e-6
0.767, -2.525e-6
0.700, -3.437e-6
0.633, -4.779e-6
0.566, -6.140e-6
0.499, -7.083e-6
0.432, -7.235e-6
0.365, -6.766e-6
0.298, -6.141e-6
0.231, -5.601e-6
0.236, -4.230e-6
0.303, -3.202e-6
0.370, -2.430e-6
0.437, -1.582e-6
0.504, -4.422e-7
0.571, 1.028e-6
0.638, 2.752e-6
0.705, 4.570e-6
0.772, 6.185e-6
0.839, 7.385e-6
0.906, 8.101e-6
0.973, 8.328e-6
1.040, 8.155e-6
1.107, 7.855e-6
1.174, 7.950e-6
1.159, 5.049e-6
1.092, 2.342e-6
1.025, 7.203e-7
0.958, -4.122e-7
0.891, -1.257e-6
0.824, -1.931e-6
0.757, -2.616e-6
0.690, -3.602e-6
0.623, -4.983e-6
0.556, -6.314e-6
0.489, -7.165e-6
0.422, -7.213e-6
0.355, -6.707e-6
0.288, -6.093e-6
0.221, -5.573e-6
0.246, -4.064e-6
0.313, -3.097e-6
0.380, -2.326e-6
0.447, -1.443e-6
0.514, -2.541e-7
0.581, 1.255e-6
0.648, 3.002e-6
0.715, 4.805e-6
0.782, 6.361e-6
0.849, 7.490e-6
0.916, 8.139e-6
0.983, 8.311e-6
1.050, 8.111e-6
1.117, 7.834e-6
1.184, 8.046e-6
1.149, 4.536e-6
1.082, 2.072e-6
1.015, 5.538e-7
0.948, -5.219e-7
0.881, -1.333e-6
0.814, -2.001e-6
0.747, -2.716e-6
0.680, -3.777e-6
0.613, -5.186e-6
0.546, -6.481e-6
0.479, -7.235e-6
0.412, -7.185e-6
0.345, -6.650e-6
0.278, -6.049e-6
0.211, -5.550e-6
0.256, -3.914e-6
0.323, -2.995e-6
0.390, -2.219e-6
0.457, -1.297e-6
0.524, -5.783e-8
0.591, 1.488e-6
0.658, 3.254e-6
0.725, 5.033e-6
0.792, 6.527e-6
0.859, 7.585e-6
0.926, 8.168e-6
0.993, 8.286e-6
1.060, 8.067e-6
1.127, 7.823e-6
1.194, 8.174e-6
1.139, 4.079e-6
1.072, 1.827e-6
1.005, 4.000e-7
0.938, -6.257e-7
0.871, -1.406e-6
0.804, -2.071e-6
0.737, -2.825e-6
0.670, -3.961e-6
0.603, -5.382e-6
0.536, -6.633e-6
0.469, -7.282e-6
0.402, -7.141e-6
0.335, -6.585e-6
0.268, -6.000e-6
0.201, -5.521e-6
0.266, -3.771e-6
0.333, -2.890e-6
0.400, -2.105e-6
0.467, -1.144e-6
0.534, 1.426e-7
0.601, 1.723e-6
0.668, 3.501e-6
0.735, 5.245e-6
0.802, 6.676e-6
0.869, 7.664e-6
0.936, 8.182e-6
1.003, 8.254e-6
1.070, 8.021e-6
1.137, 7.816e-6
1.196, 7.745e-6
1.129, 3.665e-6
1.062, 1.598e-6
0.995, 2.555e-7
0.928, -7.237e-7
0.861, -1.478e-6
0.794, -2.145e-6
0.727, -2.945e-6
0.660, -4.152e-6
0.593, -5.575e-6
0.526, -6.772e-6
0.459, -7.310e-6
0.392, -7.090e-6
0.325, -6.521e-6
0.258, -5.953e-6
0.209, -5.057e-6
0.276, -3.635e-6
0.343, -2.784e-6
0.410, -1.985e-6
0.477, -9.821e-7
0.544, 3.474e-7
0.611, 1.960e-6
0.678, 3.746e-6
0.745, 5.453e-6
0.812, 6.816e-6
0.879, 7.735e-6
0.946, 8.192e-6
1.013, 8.219e-6
1.080, 7.977e-6
1.147, 7.822e-6
1.186, 6.816e-6
1.119, 3.294e-6
1.052, 1.385e-6
0.985, 1.190e-7
0.918, -8.186e-7
0.851, -1.548e-6
0.784, -2.225e-6
0.717, -3.077e-6
0.650, -4.349e-6
0.583, -5.766e-6
0.516, -6.898e-6
0.449, -7.325e-6
0.382, -7.033e-6
0.315, -6.458e-6
0.248, -5.907e-6
0.219, -4.767e-6
0.286, -3.506e-6
0.353, -2.676e-6
0.420, -1.860e-6
0.487, -8.117e-7
0.554, 5.586e-7
0.621, 2.200e-6
0.688, 3.988e-6
0.755, 5.650e-6
0.822, 6.949e-6
0.889, 7.797e-6
0.956, 8.194e-6
1.023, 8.183e-6
1.090, 7.935e-6
1.157, 7.840e-6
1.176, 6.083e-6
1.109, 2.955e-6
1.042, 1.187e-6
0.975, -1.084e-8
0.908, -9.088e-7
0.841, -1.620e-6
0.774, -2.310e-6
0.707, -3.222e-6
0.640, -4.546e-6
0.573, -5.949e-6
0.506, -7.008e-6
0.439, -7.322e-6
0.372, -6.971e-6
0.305, -6.394e-6
0.238, -5.863e-6
0.229, -4.531e-6
0.296, -3.381e-6
0.363, -2.568e-6
0.430, -1.729e-6
0.497, -6.360e-7
0.564, 7.757e-7
0.631, 2.443e-6
0.698, 4.224e-6
0.765, 5.836e-6
0.832, 7.068e-6
0.899, 7.851e-6
0.966, 8.189e-6
1.033, 8.143e-6
1.100, 7.895e-6
1.167, 7.876e-6
1.166, 5.457e-6
1.099, 2.647e-6
1.032, 1.002e-6
0.965, -1.357e-7
0.898, -9.960e-7
0.831, -1.695e-6
0.764, -2.403e-6
0.697, -3.379e-6
0.630, -4.744e-6
0.563, -6.124e-6
0.496, -7.099e-6
0.429, -7.304e-6
0.362, -6.902e-6
0.295, -6.329e-6
0.228, -5.817e-6
0.239, -4.326e-6
0.306, -3.259e-6
0.373, -2.456e-6
0.440, -1.590e-6
0.507, -4.541e-7
0.574, 9.954e-7
0.641, 2.686e-6
0.708, 4.454e-6
0.775, 6.013e-6
0.842, 7.178e-6
0.909, 7.896e-6
0.976, 8.180e-6
1.043, 8.103e-6
1.110, 7.862e-6
1.177, 7.937e-6
1.156, 4.911e-6
1.089, 2.365e-6
1.022, 8.285e-7
0.955, -2.545e-7
0.888, -1.081e-6
0.821, -1.771e-6
0.754, -2.505e-6
0.687, -3.547e-6
0.620, -4.944e-6
0.553, -6.293e-6
0.486, -7.176e-6
0.419, -7.276e-6
0.352, -6.833e-6
0.285, -6.267e-6
0.218, -5.775e-6
0.249, -4.141e-6
0.316, -3.138e-6
0.383, -2.341e-6
0.450, -1.445e-6
0.517, -2.653e-7
0.584, 1.219e-6
0.651, 2.929e-6
0.718, 4.680e-6
0.785, 6.180e-6
0.852, 7.278e-6
0.919, 7.932e-6
0.986, 8.165e-6
1.053, 8.059e-6
1.120, 7.833e-6
1.187, 8.026e-6
1.146, 4.425e-6
1.079, 2.105e-6
1.012, 6.662e-7
0.945, -3.649e-7
0.878, -1.162e-6
0.811, -1.849e-6
0.744, -2.614e-6
0.677, -3.725e-6
0.610, -5.143e-6
0.543, -6.455e-6
0.476, -7.238e-6
0.409, -7.240e-6
0.342, -6.766e-6
0.275, -6.210e-6
0.208, -5.736e-6
0.259, -3.973e-6
0.326, -3.023e-6
0.393, -2.224e-6
0.460, -1.296e-6
0.527, -7.008e-8
0.594, 1.448e-6
0.661, 3.174e-6
0.728, 4.898e-6
0.795, 6.340e-6
0.862, 7.370e-6
0.929, 7.965e-6
0.996, 8.149e-6
1.063, 8.021e-6
1.130, 7.817e-6
1.197, 8.153e-6
1.136, 3.994e-6
1.069, 1.870e-6
1.002, 5.150e-7
0.935, -4.694e-7
0.868, -1.241e-6
0.801, -1.928e-6
0.734, -2.733e-6
0.667, -3.911e-6
0.600, -5.340e-6
0.533, -6.608e-6
0.466, -7.286e-6
0.399, -7.201e-6
0.332, -6.704e-6
0.265, -6.159e-6
0.202, -5.524e-6
0.269, -3.820e-6
0.336, -2.910e-6
0.403, -2.106e-6
0.470, -1.141e-6
0.537, 1.298e-7
0.604, 1.683e-6
0.671, 3.419e-6
0.738, 5.110e-6
0.805, 6.494e-6
0.872, 7.459e-6
0.939, 7.994e-6
1.006, 8.134e-6
1.073, 7.987e-6
1.140, 7.813e-6
1.193, 7.387e-6
1.126, 3.607e-6
1.059, 1.652e-6
0.992, 3.734e-7
0.925, -5.688e-7
0.858, -1.316e-6
0.791, -2.011e-6
0.724, -2.862e-6
0.657, -4.105e-6
0.590, -5.534e-6
0.523, -6.749e-6
0.456, -7.318e-6
0.389, -7.152e-6
0.322, -6.640e-6
0.255, -6.108e-6
0.212, -5.113e-6
0.279, -3.675e-6
0.346, -2.797e-6
0.413, -1.981e-6
0.480, -9.773e-7
0.547, 3.344e-7
0.614, 1.917e-6
0.681, 3.660e-6
0.748, 5.312e-6
0.815, 6.632e-6
0.882, 7.531e-6
0.949, 8.010e-6
1.016, 8.108e-6
1.083, 7.947e-6
1.150, 7.815e-6
1.183, 6.555e-6
1.116, 3.253e-6
1.049, 1.446e-6
0.982, 2.403e-7
0.915, -6.633e-7
0.848, -1.391e-6
0.781, -2.096e-6
0.714, -3.001e-6
0.647, -4.299e-6
0.580, -5.721e-6
0.513, -6.869e-6
0.446, -7.327e-6
0.379, -7.092e-6
0.312, -6.571e-6
0.245, -6.054e-6
0.222, -4.817e-6
0.289, -3.533e-6
0.356, -2.681e-6
0.423, -1.851e-6
0.490, -8.062e-7
0.557, 5.439e-7
0.624, 2.154e-6
0.691, 3.896e-6
0.758, 5.504e-6
0.825, 6.761e-6
0.892, 7.596e-6
0.959, 8.018e-6
1.026, 8.079e-6
1.093, 7.908e-6
1.160, 7.831e-6
1.173, 5.874e-6
1.106, 2.931e-6
1.039, 1.256e-6
0.972, 1.129e-7
0.905, -7.542e-7
0.838, -1.468e-6
0.771, -2.190e-6
0.704, -3.151e-6
0.637, -4.495e-6
0.570, -5.905e-6
0.503, -6.981e-6
0.436, -7.329e-6
0.369, -7.033e-6
0.302, -6.509e-6
0.235, -6.006e-6
0.232, -4.574e-6
0.299, -3.401e-6
0.366, -2.567e-6
0.433, -1.717e-6
0.500, -6.299e-7
0.567, 7.597e-7
0.634, 2.394e-6
0.701, 4.129e-6
0.768, 5.688e-6
0.835, 6.881e-6
0.902, 7.654e-6
0.969, 8.024e-6
1.036, 8.049e-6
1.103, 7.872e-6
1.170, 7.865e-6
1.163, 5.287e-6
1.096, 2.638e-6
1.029, 1.078e-6
0.962, -7.940e-9
0.895, -8.427e-7
0.828, -1.546e-6
0.761, -2.290e-6
0.694, -3.313e-6
0.627, -4.692e-6
0.560, -6.079e-6
0.493, -7.070e-6
0.426, -7.311e-6
0.359, -6.964e-6
0.292, -6.438e-6
0.225, -5.952e-6
0.242, -4.357e-6
0.309, -3.267e-6
0.376, -2.446e-6
0.443, -1.574e-6
0.510, -4.479e-7
0.577, 9.770e-7
0.644, 2.632e-6
0.711, 4.350e-6
0.778, 5.856e-6
0.845, 6.985e-6
0.912, 7.697e-6
0.979, 8.018e-6
1.046, 8.013e-6
1.113, 7.838e-6
1.180, 7.920e-6
1.153, 4.771e-6
1.086, 2.368e-6
1.019, 9.098e-7
0.952, -1.239e-7
0.885, -9.281e-7
0.818, -1.628e-6
0.751, -2.397e-6
0.684, -3.484e-6
0.617, -4.890e-6
0.550, -6.246e-6
0.483, -7.146e-6
0.416, -7.285e-6
0.349, -6.898e-6
0.282, -6.376e-6
0.215, -5.908e-6
0.252, -4.166e-6
0.319, -3.142e-6
0.386, -2.329e-6
0.453, -1.429e-6
0.520, -2.603e-7
0.587, 1.199e-6
0.654, 2.871e-6
0.721, 4.570e-6
0.788, 6.022e-6
0.855, 7.088e-6
0.922, 7.741e-6
0.989, 8.014e-6
1.056, 7.981e-6
1.123, 7.814e-6
1.190, 8.010e-6
1.143, 4.314e-6
1.076, 2.121e-6
1.009, 7.537e-7
0.942, -2.335e-7
0.875, -1.012e-6
0.808, -1.711e-6
0.741, -2.516e-6
0.674, -3.665e-6
0.607, -5.089e-6
0.540, -6.410e-6
0.473, -7.211e-6
0.406, -7.255e-6
0.339, -6.834e-6
0.272, -6.318e-6
0.205, -5.868e-6
0.262, -3.991e-6
0.329, -3.022e-6
0.396, -2.210e-6
0.463, -1.278e-6
0.530, -6.634e-8
0.597, 1.425e-6
0.664, 3.113e-6
0.731, 4.787e-6
0.798, 6.182e-6
0.865, 7.186e-6
0.932, 7.782e-6
0.999, 8.010e-6
1.066, 7.952e-6
1.133, 7.797e-6
1.200, 8.119e-6
1.133, 3.905e-6
1.066, 1.894e-6
0.999, 6.052e-7
0.932, -3.386e-7
0.865, -1.095e-6
0.798, -1.798e-6
0.731, -2.643e-6
0.664, -3.853e-6
0.597, -5.284e-6
0.530, -6.560e-6
0.463, -7.255e-6
0.396, -7.212e-6
0.329, -6.768e-6
0.262, -6.261e-6
0.205, -5.491e-6
0.272, -3.829e-6
0.339, -2.902e-6
0.406, -2.086e-6
0.473, -1.122e-6
0.540, 1.316e-7
0.607, 1.656e-6
0.674, 3.351e-6
0.741, 4.993e-6
0.808, 6.330e-6
0.875, 7.271e-6
0.942, 7.813e-6
1.009, 7.997e-6
1.076, 7.919e-6
1.143, 7.789e-6
1.190, 7.066e-6
1.123, 3.535e-6
1.056, 1.683e-6
0.989, 4.660e-7
0.922, -4.389e-7
0.855, -1.176e-6
0.788, -1.888e-6
0.721, -2.780e-6
0.654, -4.048e-6
0.587, -5.478e-6
0.520, -6.700e-6
0.453, -7.289e-6
0.386, -7.168e-6
0.319, -6.706e-6
0.252, -6.210e-6
0.215, -5.117e-6
0.282, -3.678e-6
0.349, -2.785e-6
0.416, -1.960e-6
0.483, -9.594e-7
0.550, 3.338e-7
0.617, 1.889e-6
0.684, 3.589e-6
0.751, 5.191e-6
0.818, 6.472e-6
0.885, 7.352e-6
0.952, 7.841e-6
1.019, 7.985e-6
1.086, 7.890e-6
1.153, 7.794e-6
1.180, 6.312e-6
1.113, 3.203e-6
1.046, 1.486e-6
0.979, 3.341e-7
0.912, -5.349e-7
0.845, -1.256e-6
0.778, -1.984e-6
0.711, -2.928e-6
0.644, -4.245e-6
0.577, -5.670e-6
0.510, -6.827e-6
0.443, -7.307e-6
0.376, -7.118e-6
0.309, -6.643e-6
0.242, -6.158e-6
0.225, -4.827e-6
0.292, -3.535e-6
0.359, -2.668e-6
0.426, -1.829e-6
0.493, -7.891e-7
0.560, 5.417e-7
0.627, 2.122e-6
0.694, 3.822e-6
0.761, 5.382e-6
0.828, 6.605e-6
0.895, 7.425e-6
0.962, 7.863e-6
1.029, 7.971e-6
1.096, 7.863e-6
1.163, 7.818e-6
1.170, 5.682e-6
1.103, 2.899e-6
1.036, 1.304e-6
0.969, 2.111e-7
0.902, -6.271e-7
0.835, -1.339e-6
0.768, -2.085e-6
0.701, -3.086e-6
0.634, -4.444e-6
0.567, -5.856e-6
0.500, -6.940e-6
0.433, -7.313e-6
0.366, -7.064e-6
0.299, -6.584e-6
0.232, -6.111e-6
0.235, -4.582e-6
0.302, -3.398e-6
0.369, -2.550e-6
0.436, -1.693e-6
0.503, -6.137e-7
0.570, 7.552e-7
0.637, 2.360e-6
0.704, 4.052e-6
0.771, 5.566e-6
0.838, 6.726e-6
0.905, 7.488e-6
0.972, 7.877e-6
1.039, 7.953e-6
1.106, 7.835e-6
1.173, 7.856e-6
1.160, 5.131e-6
1.093, 2.620e-6
1.026, 1.132e-6
0.959, 9.240e-8
0.892, -7.163e-7
0.825, -1.421e-6
0.758, -2.192e-6
0.691, -3.254e-6
0.624, -4.642e-6
0.557, -6.033e-6
0.490, -7.034e-6
0.423, -7.302e-6
0.356, -7.002e-6
0.289, -6.518e-6
0.222, -6.059e-6
0.245, -4.364e-6
0.312, -3.263e-6
0.379, -2.428e-6
0.446, -1.550e-6
0.513, -4.322e-7
0.580, 9.707e-7
0.647, 2.595e-6
0.714, 4.272e-6
0.781, 5.736e-6
0.848, 6.836e-6
0.915, 7.541e-6
0.982, 7.884e-6
1.049, 7.929e-6
1.116, 7.809e-6
1.183, 7.916e-6
1.150, 4.645e-6
1.083, 2.363e-6
1.016, 9.701e-7
0.949, -2.068e-8
0.882, -8.034e-7
0.815, -1.508e-6
0.748, -2.308e-6
0.681, -3.430e-6
0.614, -4.843e-6
0.547, -6.206e-6
0.480, -7.117e-6
0.413, -7.288e-6
0.346, -6.947e-6
0.279, -6.464e-6
0.212, -6.019e-6
0.255, -4.173e-6
0.322, -3.136e-6
0.389, -2.309e-6
0.456, -1.404e-6
0.523, -2.461e-7
0.590, 1.192e-6
0.657, 2.833e-6
0.724, 4.490e-6
0.791, 5.901e-6
0.858, 6.941e-6
0.925, 7.592e-6
0.992, 7.889e-6
1.059, 7.907e-6
1.126, 7.789e-6
1.193, 8.008e-6
1.140, 4.212e-6
1.073, 2.124e-6
1.006, 8.183e-7
0.939, -1.299e-7
0.872, -8.901e-7
0.805, -1.596e-6
0.738, -2.432e-6
0.671, -3.613e-6
0.604, -5.039e-6
0.537, -6.364e-6
0.470, -7.174e-6
0.403, -7.253e-6
0.336, -6.879e-6
0.269, -6.401e-6
0.202, -5.973e-6
0.265, -3.990e-6
0.332, -3.008e-6
0.399, -2.185e-6
0.466, -1.253e-6
0.533, -5.400e-8
0.600, 1.414e-6
0.667, 3.067e-6
0.734, 4.697e-6
0.801, 6.053e-6
0.868, 7.034e-6
0.935, 7.632e-6
1.002, 7.888e-6
1.069, 7.882e-6
1.136, 7.775e-6
1.197, 7.709e-6
1.130, 3.822e-6
1.063, 1.905e-6
0.996, 6.727e-7
0.929, -2.353e-7
0.862, -9.769e-7
0.795, -1.691e-6
0.728, -2.569e-6
0.661, -3.804e-6
0.594, -5.236e-6
0.527, -6.517e-6
0.460, -7.224e-6
0.393, -7.217e-6
0.326, -6.817e-6
0.259, -6.344e-6
0.208, -5.460e-6
0.275, -3.824e-6
0.342, -2.885e-6
0.409, -2.060e-6
0.476, -1.097e-6
0.543, 1.421e-7
0.610, 1.642e-6
0.677, 3.302e-6
0.744, 4.901e-6
0.811, 6.201e-6
0.878, 7.126e-6
0.945, 7.671e-6
1.012, 7.886e-6
1.079, 7.859e-6
1.146, 7.773e-6
1.187, 6.799e-6
1.120, 3.472e-6
1.053, 1.703e-6
0.986, 5.356e-7
0.919, -3.377e-7
0.852, -1.064e-6
0.785, -1.790e-6
0.718, -2.714e-6
0.651, -4.000e-6
0.584, -5.431e-6
0.517, -6.656e-6
0.450, -7.256e-6
0.383, -7.172e-6
0.316, -6.753e-6
0.249, -6.287e-6
0.218, -5.100e-6
0.285, -3.667e-6
0.352, -2.763e-6
0.419, -1.931e-6
0.486, -9.344e-7
0.553, 3.410e-7
0.620, 1.869e-6
0.687, 3.531e-6
0.754, 5.092e-6
0.821, 6.342e-6
0.888, 7.205e-6
0.955, 7.701e-6
1.022, 7.879e-6
1.089, 7.834e-6
1.156, 7.780e-6
1.177, 6.098e-6
1.110, 3.153e-6
1.043, 1.513e-6
0.976, 4.063e-7
0.909, -4.345e-7
0.842, -1.151e-6
0.775, -1.893e-6
0.708, -2.869e-6
0.641, -4.199e-6
0.574, -5.623e-6
0.507, -6.783e-6
0.440, -7.276e-6
0.373, -7.124e-6
0.306, -6.692e-6
0.239, -6.236e-6
0.228, -4.812e-6
0.295, -3.519e-6
0.362, -2.642e-6
0.429, -1.798e-6
0.496, -7.650e-7
0.563, 5.458e-7
0.630, 2.097e-6
0.697, 3.758e-6
0.764, 5.276e-6
0.831, 6.467e-6
0.898, 7.275e-6
0.965, 7.722e-6
1.032, 7.866e-6
1.099, 7.807e-6
1.166, 7.798e-6
1.167, 5.499e-6
1.100, 2.858e-6
1.033, 1.333e-6
0.966, 2.852e-7
0.899, -5.259e-7
0.832, -1.235e-6
0.765, -1.998e-6
0.698, -3.029e-6
0.631, -4.394e-6
0.564, -5.803e-6
0.497, -6.886e-6
0.430, -7.275e-6
0.363, -7.064e-6
0.296, -6.624e-6
0.229, -6.180e-6
0.238, -4.561e-6
0.305, -3.375e-6
0.372, -2.519e-6
0.439, -1.660e-6
0.506, -5.918e-7
0.573, 7.549e-7
0.640, 2.328e-6
0.707, 3.980e-6
0.774, 5.452e-6
0.841, 6.586e-6
0.908, 7.339e-6
0.975, 7.740e-6
1.042, 7.852e-6
1.109, 7.785e-6
1.176, 7.840e-6
1.157, 4.980e-6
1.090, 2.590e-6
1.023, 1.165e-6
0.956, 1.683e-7
0.889, -6.170e-7
0.822, -1.321e-6
0.755, -2.112e-6
0.688, -3.200e-6
0.621, -4.591e-6
0.554, -5.980e-6
0.487, -6.980e-6
0.420, -7.267e-6
0.353, -7.008e-6
0.286, -6.563e-6
0.219, -6.131e-6
0.248, -4.344e-6
0.315, -3.237e-6
0.382, -2.396e-6
0.449, -1.517e-6
0.516, -4.123e-7
0.583, 9.670e-7
0.650, 2.559e-6
0.717, 4.195e-6
0.784, 5.619e-6
0.851, 6.693e-6
0.918, 7.394e-6
0.985, 7.751e-6
1.052, 7.835e-6
1.119, 7.763e-6
1.186, 7.901e-6
1.147, 4.515e-6
1.080, 2.342e-6
1.013, 1.010e-6
0.946, 5.802e-8
0.879, -7.032e-7
0.812, -1.409e-6
0.745, -2.232e-6
0.678, -3.378e-6
0.611, -4.790e-6
0.544, -6.151e-6
0.477, -7.063e-6
0.410, -7.256e-6
0.343, -6.956e-6
0.276, -6.511e-6
0.209, -6.091e-6
0.258, -4.152e-6
0.325, -3.110e-6
0.392, -2.278e-6
0.459, -1.374e-6
0.526, -2.286e-7
0.593, 1.186e-6
0.660, 2.795e-6
0.727, 4.412e-6
0.794, 5.787e-6
0.861, 6.804e-6
0.928, 7.453e-6
0.995, 7.768e-6
1.062, 7.827e-6
1.129, 7.756e-6
1.196, 8.002e-6
1.137, 4.108e-6
1.070, 2.116e-6
1.003, 8.651e-7
0.936, -4.643e-8
0.869, -7.894e-7
0.802, -1.501e-6
0.735, -2.363e-6
0.668, -3.565e-6
0.601, -4.992e-6
0.534, -6.316e-6
0.467, -7.131e-6
0.400, -7.236e-6
0.333, -6.903e-6
0.266, -6.459e-6
0.201, -5.943e-6
0.268, -3.971e-6
0.335, -2.982e-6
0.402, -2.153e-6
0.469, -1.224e-6
0.536, -3.757e-8
0.603, 1.406e-6
0.670, 3.026e-6
0.737, 4.615e-6
0.804, 5.937e-6
0.871, 6.899e-6
0.938, 7.497e-6
1.005, 7.773e-6
1.072, 7.809e-6
1.139, 7.747e-6
1.194, 7.354e-6
1.127, 3.735e-6
1.060, 1.906e-6
0.993, 7.276e-7
0.926, -1.467e-7
0.859, -8.721e-7
0.792, -1.594e-6
0.725, -2.499e-6
0.658, -3.753e-6
0.591, -5.184e-6
0.524, -6.465e-6
0.457, -7.178e-6
0.390, -7.202e-6
0.323, -6.842e-6
0.256, -6.401e-6
0.211, -5.409e-6
0.278, -3.801e-6
0.345, -2.855e-6
0.412, -2.024e-6
0.479, -1.066e-6
0.546, 1.563e-7
0.613, 1.628e-6
0.680, 3.252e-6
0.747, 4.808e-6
0.814, 6.074e-6
0.881, 6.979e-6
0.948, 7.528e-6
1.015, 7.766e-6
1.082, 7.782e-6
1.149, 7.738e-6
1.184, 6.530e-6
1.117, 3.394e-6
1.050, 1.709e-6
0.983, 5.956e-7
0.916, -2.422e-7
0.849, -9.549e-7
0.782, -1.690e-6
0.715, -2.642e-6
0.648, -3.939e-6
0.581, -5.367e-6
0.514, -6.589e-6
0.447, -7.197e-6
0.380, -7.144e-6
0.313, -6.765e-6
0.246, -6.331e-6
0.221, -5.051e-6
0.288, -3.632e-6
0.355, -2.724e-6
0.422, -1.889e-6
0.489, -9.018e-7
0.556, 3.511e-7
0.623, 1.847e-6
0.690, 3.467e-6
0.757, 4.981e-6
0.824, 6.190e-6
0.891, 7.036e-6
0.958, 7.536e-6
1.025, 7.741e-6
1.092, 7.743e-6
1.159, 7.725e-6
1.174, 5.851e-6
1.107, 3.075e-6
1.040, 1.521e-6
0.973, 4.705e-7
0.906, -3.332e-7
0.839, -1.036e-6
0.772, -1.788e-6
0.705, -2.789e-6
0.638, -4.124e-6
0.571, -5.540e-6
0.504, -6.694e-6
0.437, -7.197e-6
0.370, -7.082e-6
0.303, -6.693e-6
0.236, -6.269e-6
0.201, -6.071e-6