File: Data/2022-03-23 MQ HCF/CV-Carbon-NiHCF-1.txt
Mar. 22, 2022   11:19:03
Cyclic Voltammetry
File: d:\mq\20220322-pba stability\cv-carbon-nihcf-1.txt
Data Source:  Experiment
Instrument Model:  CHI840D
Header:
Note:

Init E (V) = 0
High E (V) = 0.8
Low E (V) = 0
Init P/N = P
Scan Rate (V/s) = 0.05
Segment = 100
Sample Interval (V) = 0.001
Quiet Time (sec) = 2
Sensitivity (A/V) = 1e-4

Segment 1:
Ep = 0.465V
ip = 4.647e-5A
Ah = 1.055e-4C

Segment 2:
Ep = 0.283V
ip = -2.375e-5A
Ah = -4.365e-5C

Segment 3:
Ep = 0.464V
ip = 4.673e-5A
Ah = 1.062e-4C

Segment 4:
Ep = 0.282V
ip = -2.347e-5A
Ah = -4.336e-5C

Segment 5:
Ep = 0.464V
ip = 4.706e-5A
Ah = 1.070e-4C

Segment 6:
Ep = 0.282V
ip = -2.320e-5A
Ah = -4.273e-5C

Segment 7:
Ep = 0.464V
ip = 4.746e-5A
Ah = 1.078e-4C

Segment 8:
Ep = 0.282V
ip = -2.289e-5A
Ah = -4.212e-5C

Segment 9:
Ep = 0.464V
ip = 4.783e-5A
Ah = 1.084e-4C

Segment 10:
Ep = 0.282V
ip = -2.264e-5A
Ah = -4.161e-5C

Segment 11:
Ep = 0.464V
ip = 4.816e-5A
Ah = 1.091e-4C

Segment 12:
Ep = 0.281V
ip = -2.224e-5A
Ah = -4.163e-5C

Segment 13:
Ep = 0.464V
ip = 4.849e-5A
Ah = 1.097e-4C

Segment 14:
Ep = 0.281V
ip = -2.194e-5A
Ah = -4.114e-5C

Segment 15:
Ep = 0.464V
ip = 4.880e-5A
Ah = 1.102e-4C

Segment 16:
Ep = 0.281V
ip = -2.169e-5A
Ah = -4.069e-5C

Segment 17:
Ep = 0.464V
ip = 4.903e-5A
Ah = 1.107e-4C

Segment 18:
Ep = 0.281V
ip = -2.142e-5A
Ah = -4.025e-5C

Segment 19:
Ep = 0.465V
ip = 4.922e-5A
Ah = 1.121e-4C

Segment 20:
Ep = 0.281V
ip = -2.117e-5A
Ah = -3.985e-5C

Segment 21:
Ep = 0.464V
ip = 4.958e-5A
Ah = 1.116e-4C

Segment 22:
Ep = 0.281V
ip = -2.094e-5A
Ah = -3.952e-5C

Segment 23:
Ep = 0.464V
ip = 4.982e-5A
Ah = 1.120e-4C

Segment 24:
Ep = 0.281V
ip = -2.072e-5A
Ah = -3.918e-5C

Segment 25:
Ep = 0.465V
ip = 4.959e-5A
Ah = 1.124e-4C

Segment 26:
Ep = 0.281V
ip = -2.046e-5A
Ah = -3.882e-5C

Segment 27:
Ep = 0.465V
ip = 4.981e-5A
Ah = 1.128e-4C

Segment 28:
Ep = 0.281V
ip = -2.026e-5A
Ah = -3.855e-5C

Segment 29:
Ep = 0.465V
ip = 5.003e-5A
Ah = 1.132e-4C

Segment 30:
Ep = 0.281V
ip = -2.069e-5A
Ah = -4.055e-5C

Segment 31:
Ep = 0.465V
ip = 5.021e-5A
Ah = 1.135e-4C

Segment 32:
Ep = 0.281V
ip = -2.088e-5A
Ah = -4.119e-5C

Segment 33:
Ep = 0.465V
ip = 5.043e-5A
Ah = 1.138e-4C

Segment 34:
Ep = 0.281V
ip = -2.107e-5A
Ah = -4.184e-5C

Segment 35:
Ep = 0.465V
ip = 5.062e-5A
Ah = 1.142e-4C

Segment 36:
Ep = 0.281V
ip = -2.129e-5A
Ah = -4.253e-5C

Segment 37:
Ep = 0.465V
ip = 5.078e-5A
Ah = 1.144e-4C

Segment 38:
Ep = 0.281V
ip = -2.149e-5A
Ah = -4.320e-5C

Segment 39:
Ep = 0.465V
ip = 5.094e-5A
Ah = 1.147e-4C

Segment 40:
Ep = 0.281V
ip = -2.174e-5A
Ah = -4.389e-5C

Segment 41:
Ep = 0.465V
ip = 5.108e-5A
Ah = 1.150e-4C

Segment 42:
Ep = 0.281V
ip = -2.202e-5A
Ah = -4.461e-5C

Segment 43:
Ep = 0.465V
ip = 5.121e-5A
Ah = 1.152e-4C

Segment 44:
Ep = 0.281V
ip = -2.222e-5A
Ah = -4.528e-5C

Segment 45:
Ep = 0.465V
ip = 5.136e-5A
Ah = 1.155e-4C

Segment 46:
Ep = 0.281V
ip = -2.245e-5A
Ah = -4.598e-5C

Segment 47:
Ep = 0.465V
ip = 5.152e-5A
Ah = 1.157e-4C

Segment 48:
Ep = 0.281V
ip = -2.270e-5A
Ah = -4.666e-5C

Segment 49:
Ep = 0.465V
ip = 5.162e-5A
Ah = 1.159e-4C

Segment 50:
Ep = 0.281V
ip = -2.298e-5A
Ah = -4.737e-5C

Segment 51:
Ep = 0.465V
ip = 5.170e-5A
Ah = 1.161e-4C

Segment 52:
Ep = 0.281V
ip = -2.323e-5A
Ah = -4.805e-5C

Segment 53:
Ep = 0.465V
ip = 5.182e-5A
Ah = 1.163e-4C

Segment 54:
Ep = 0.281V
ip = -2.349e-5A
Ah = -4.874e-5C

Segment 55:
Ep = 0.465V
ip = 5.198e-5A
Ah = 1.165e-4C

Segment 56:
Ep = 0.281V
ip = -2.369e-5A
Ah = -4.940e-5C

Segment 57:
Ep = 0.466V
ip = 5.167e-5A
Ah = 1.167e-4C

Segment 58:
Ep = 0.281V
ip = -2.390e-5A
Ah = -5.004e-5C

Segment 59:
Ep = 0.466V
ip = 5.181e-5A
Ah = 1.169e-4C

Segment 60:
Ep = 0.281V
ip = -2.418e-5A
Ah = -5.074e-5C

Segment 61:
Ep = 0.466V
ip = 5.186e-5A
Ah = 1.171e-4C

Segment 62:
Ep = 0.281V
ip = -2.446e-5A
Ah = -5.144e-5C

Segment 63:
Ep = 0.466V
ip = 5.198e-5A
Ah = 1.173e-4C

Segment 64:
Ep = 0.281V
ip = -2.470e-5A
Ah = -5.207e-5C

Segment 65:
Ep = 0.466V
ip = 5.204e-5A
Ah = 1.174e-4C

Segment 66:
Ep = 0.281V
ip = -2.494e-5A
Ah = -5.276e-5C

Segment 67:
Ep = 0.466V
ip = 5.215e-5A
Ah = 1.176e-4C

Segment 68:
Ep = 0.281V
ip = -2.521e-5A
Ah = -5.343e-5C

Segment 69:
Ep = 0.466V
ip = 5.222e-5A
Ah = 1.178e-4C

Segment 70:
Ep = 0.280V
ip = -2.528e-5A
Ah = -5.460e-5C

Segment 71:
Ep = 0.466V
ip = 5.232e-5A
Ah = 1.179e-4C

Segment 72:
Ep = 0.281V
ip = -2.568e-5A
Ah = -5.476e-5C

Segment 73:
Ep = 0.466V
ip = 5.241e-5A
Ah = 1.181e-4C

Segment 74:
Ep = 0.282V
ip = -2.590e-5A
Ah = -5.542e-5C

Segment 75:
Ep = 0.465V
ip = 5.254e-5A
Ah = 1.182e-4C

Segment 76:
Ep = 0.282V
ip = -2.612e-5A
Ah = -5.603e-5C

Segment 77:
Ep = 0.465V
ip = 5.262e-5A
Ah = 1.184e-4C

Segment 78:
Ep = 0.282V
ip = -2.634e-5A
Ah = -5.663e-5C

Segment 79:
Ep = 0.465V
ip = 5.276e-5A
Ah = 1.185e-4C

Segment 80:
Ep = 0.282V
ip = -2.654e-5A
Ah = -5.723e-5C

Segment 81:
Ep = 0.465V
ip = 5.293e-5A
Ah = 1.186e-4C

Segment 82:
Ep = 0.282V
ip = -2.670e-5A
Ah = -5.781e-5C

Segment 83:
Ep = 0.465V
ip = 5.306e-5A
Ah = 1.188e-4C

Segment 84:
Ep = 0.282V
ip = -2.692e-5A
Ah = -5.841e-5C

Segment 85:
Ep = 0.465V
ip = 5.312e-5A
Ah = 1.189e-4C

Segment 86:
Ep = 0.282V
ip = -2.718e-5A
Ah = -5.903e-5C

Segment 87:
Ep = 0.465V
ip = 5.319e-5A
Ah = 1.191e-4C

Segment 88:
Ep = 0.282V
ip = -2.740e-5A
Ah = -5.962e-5C

Segment 89:
Ep = 0.465V
ip = 5.326e-5A
Ah = 1.192e-4C

Segment 90:
Ep = 0.282V
ip = -2.760e-5A
Ah = -6.018e-5C

Segment 91:
Ep = 0.465V
ip = 5.336e-5A
Ah = 1.193e-4C

Segment 92:
Ep = 0.282V
ip = -2.779e-5A
Ah = -6.073e-5C

Segment 93:
Ep = 0.465V
ip = 5.346e-5A
Ah = 1.194e-4C

Segment 94:
Ep = 0.282V
ip = -2.793e-5A
Ah = -6.124e-5C

Segment 95:
Ep = 0.466V
ip = 5.349e-5A
Ah = 1.206e-4C

Segment 96:
Ep = 0.282V
ip = -2.815e-5A
Ah = -6.178e-5C

Segment 97:
Ep = 0.465V
ip = 5.359e-5A
Ah = 1.196e-4C

Segment 98:
Ep = 0.282V
ip = -2.838e-5A
Ah = -6.232e-5C

Segment 99:
Ep = 0.465V
ip = 5.368e-5A
Ah = 1.198e-4C

Segment 100:
Ep = 0.282V
ip = -2.858e-5A
Ah = -6.284e-5C

Potential/V, Current/A

0.000, -7.331e-7
0.054, -2.915e-7
0.108, 2.342e-8
0.162, 9.896e-7
0.216, 4.338e-6
0.270, 1.253e-5
0.324, 2.853e-5
0.378, 5.078e-5
0.432, 7.042e-5
0.486, 7.265e-5
0.540, 4.010e-5
0.594, 1.481e-5
0.648, 6.801e-6
0.702, 3.905e-6
0.756, 2.632e-6
0.790, 1.656e-6
0.736, 7.917e-7
0.682, -1.914e-7
0.628, -2.511e-6
0.574, -7.812e-6
0.520, -1.582e-5
0.466, -2.382e-5
0.412, -3.525e-5
0.358, -5.419e-5
0.304, -7.157e-5
0.250, -6.584e-5
0.196, -2.100e-5
0.142, -6.342e-6
0.088, -2.997e-6
0.034, -1.861e-6
0.020, -9.589e-7
0.074, -4.816e-7
0.128, 5.562e-8
0.182, 1.707e-6
0.236, 6.654e-6
0.290, 1.761e-5
0.344, 3.683e-5
0.398, 5.960e-5
0.452, 7.467e-5
0.506, 6.395e-5
0.560, 2.668e-5
0.614, 1.044e-5
0.668, 5.197e-6
0.722, 3.167e-6
0.776, 2.234e-6
0.770, 1.220e-6
0.716, 4.930e-7
0.662, -7.022e-7
0.608, -3.773e-6
0.554, -1.023e-5
0.500, -1.880e-5
0.446, -2.708e-5
0.392, -4.151e-5
0.338, -6.166e-5
0.284, -7.398e-5
0.230, -5.144e-5
0.176, -1.276e-5
0.122, -4.676e-6
0.068, -2.480e-6
0.014, -1.662e-6
0.040, -7.586e-7
0.094, -3.337e-7
0.148, 4.335e-7
0.202, 2.999e-6
0.256, 9.816e-6
0.310, 2.387e-5
0.364, 4.551e-5
0.418, 6.713e-5
0.472, 7.529e-5
0.526, 4.968e-5
0.580, 1.815e-5
0.634, 7.687e-6
0.688, 4.122e-6
0.742, 2.659e-6
0.796, 1.975e-6
0.750, 9.324e-7
0.696, 1.908e-7
0.642, -1.389e-6
0.588, -5.466e-6
0.534, -1.306e-5
0.480, -2.168e-5
0.426, -3.137e-5
0.372, -4.877e-5
0.318, -6.835e-5
0.264, -7.204e-5
0.210, -3.212e-5
0.156, -8.383e-6
0.102, -3.602e-6
0.048, -2.110e-6
0.006, -1.201e-6
0.060, -6.034e-7
0.114, -1.499e-7
0.168, 1.026e-6
0.222, 4.840e-6
0.276, 1.393e-5
0.330, 3.125e-5
0.384, 5.419e-5
0.438, 7.283e-5
0.492, 7.100e-5
0.546, 3.460e-5
0.600, 1.266e-5
0.654, 5.841e-6
0.708, 3.354e-6
0.762, 2.290e-6
0.784, 1.381e-6
0.730, 6.859e-7
0.676, -1.797e-7
0.622, -2.327e-6
0.568, -7.642e-6
0.514, -1.619e-5
0.460, -2.464e-5
0.406, -3.697e-5
0.352, -5.654e-5
0.298, -7.303e-5
0.244, -6.342e-5
0.190, -1.850e-5
0.136, -5.899e-6
0.082, -2.885e-6
0.028, -1.844e-6
0.026, -9.198e-7
0.080, -4.619e-7
0.134, 1.219e-7
0.188, 1.967e-6
0.242, 7.388e-6
0.296, 1.926e-5
0.350, 3.952e-5
0.404, 6.241e-5
0.458, 7.588e-5
0.512, 6.044e-5
0.566, 2.331e-5
0.620, 9.118e-6
0.674, 4.576e-6
0.728, 2.816e-6
0.782, 2.018e-6
0.764, 1.075e-6
0.710, 4.414e-7
0.656, -6.646e-7
0.602, -3.636e-6
0.548, -1.031e-5
0.494, -1.934e-5
0.440, -2.819e-5
0.386, -4.367e-5
0.332, -6.403e-5
0.278, -7.441e-5
0.224, -4.647e-5
0.170, -1.141e-5
0.116, -4.381e-6
0.062, -2.396e-6
0.008, -1.646e-6
0.046, -7.256e-7
0.100, -3.011e-7
0.154, 5.473e-7
0.208, 3.382e-6
0.262, 1.079e-5
0.316, 2.590e-5
0.370, 4.828e-5
0.424, 6.945e-5
0.478, 7.513e-5
0.532, 4.496e-5
0.586, 1.586e-5
0.640, 6.761e-6
0.694, 3.677e-6
0.748, 2.408e-6
0.798, 1.644e-6
0.744, 8.341e-7
0.690, 1.596e-7
0.636, -1.349e-6
0.582, -5.420e-6
0.528, -1.337e-5
0.474, -2.232e-5
0.420, -3.290e-5
0.366, -5.119e-5
0.312, -7.028e-5
0.258, -7.079e-5
0.204, -2.771e-5
0.150, -7.620e-6
0.096, -3.405e-6
0.042, -2.053e-6
0.012, -1.114e-6
0.066, -5.718e-7
0.120, -9.615e-8
0.174, 1.217e-6
0.228, 5.397e-6
0.282, 1.527e-5
0.336, 3.363e-5
0.390, 5.692e-5
0.444, 7.447e-5
0.498, 6.896e-5
0.552, 3.054e-5
0.606, 1.110e-5
0.660, 5.192e-6
0.714, 3.044e-6
0.768, 2.106e-6
0.778, 1.228e-6
0.724, 6.219e-7
0.670, -1.961e-7
0.616, -2.299e-6
0.562, -7.732e-6
0.508, -1.667e-5
0.454, -2.548e-5
0.400, -3.891e-5
0.346, -5.901e-5
0.292, -7.415e-5
0.238, -5.972e-5
0.184, -1.612e-5
0.130, -5.443e-6
0.076, -2.757e-6
0.022, -1.804e-6
0.032, -8.695e-7
0.086, -4.267e-7
0.140, 2.025e-7
0.194, 2.260e-6
0.248, 8.162e-6
0.302, 2.098e-5
0.356, 4.213e-5
0.410, 6.490e-5
0.464, 7.652e-5
0.518, 5.638e-5
0.572, 2.038e-5
0.626, 8.040e-6
0.680, 4.104e-6
0.734, 2.574e-6
0.788, 1.885e-6
0.758, 9.703e-7
0.704, 3.902e-7
0.650, -6.768e-7
0.596, -3.648e-6
0.542, -1.057e-5
0.488, -1.990e-5
0.434, -2.940e-5
0.380, -4.592e-5
0.326, -6.625e-5
0.272, -7.428e-5
0.218, -4.097e-5
0.164, -1.020e-5
0.110, -4.101e-6
0.056, -2.312e-6
0.002, -1.627e-6
0.052, -6.900e-7
0.106, -2.633e-7
0.160, 6.790e-7
0.214, 3.816e-6
0.268, 1.186e-5
0.322, 2.802e-5
0.376, 5.096e-5
0.430, 7.145e-5
0.484, 7.430e-5
0.538, 4.025e-5
0.592, 1.387e-5
0.646, 6.019e-6
0.700, 3.332e-6
0.754, 2.226e-6
0.792, 1.424e-6
0.738, 7.588e-7
0.684, 1.220e-7
0.630, -1.369e-6
0.576, -5.517e-6
0.522, -1.379e-5
0.468, -2.300e-5
0.414, -3.456e-5
0.360, -5.363e-5
0.306, -7.194e-5
0.252, -6.875e-5
0.198, -2.380e-5
0.144, -6.959e-6
0.090, -3.231e-6
0.036, -2.001e-6
0.018, -1.047e-6
0.072, -5.437e-7
0.126, -4.374e-8
0.180, 1.431e-6
0.234, 6.019e-6
0.288, 1.671e-5
0.342, 3.606e-5
0.396, 5.952e-5
0.450, 7.572e-5
0.504, 6.619e-5
0.558, 2.682e-5
0.612, 9.771e-6
0.666, 4.673e-6
0.720, 2.795e-6
0.774, 1.969e-6
0.772, 1.114e-6
0.718, 5.610e-7
0.664, -2.331e-7
0.610, -2.358e-6
0.556, -7.972e-6
0.502, -1.722e-5
0.448, -2.641e-5
0.394, -4.096e-5
0.340, -6.137e-5
0.286, -7.484e-5
0.232, -5.514e-5
0.178, -1.416e-5
0.124, -5.055e-6
0.070, -2.647e-6
0.016, -1.772e-6
0.038, -8.271e-7
0.092, -3.927e-7
0.146, 2.967e-7
0.200, 2.594e-6
0.254, 9.033e-6
0.308, 2.286e-5
0.362, 4.476e-5
0.416, 6.720e-5
0.470, 7.669e-5
0.524, 5.176e-5
0.578, 1.783e-5
0.632, 7.151e-6
0.686, 3.734e-6
0.740, 2.387e-6
0.794, 1.779e-6
0.752, 8.881e-7
0.698, 3.388e-7
0.644, -7.241e-7
0.590, -3.771e-6
0.536, -1.098e-5
0.482, -2.051e-5
0.428, -3.075e-5
0.374, -4.826e-5
0.320, -6.828e-5
0.266, -7.356e-5
0.212, -3.550e-5
0.158, -9.175e-6
0.104, -3.859e-6
0.050, -2.240e-6
0.004, -1.304e-6
0.058, -6.562e-7
0.112, -2.190e-7
0.166, 8.282e-7
0.220, 4.304e-6
0.274, 1.304e-5
0.328, 3.024e-5
0.382, 5.361e-5
0.436, 7.321e-5
0.490, 7.289e-5
0.544, 3.566e-5
0.598, 1.218e-5
0.652, 5.410e-6
0.706, 3.075e-6
0.760, 2.085e-6
0.786, 1.279e-6
0.732, 6.953e-7
0.678, 7.137e-8
0.624, -1.443e-6
0.570, -5.742e-6
0.516, -1.433e-5
0.462, -2.375e-5
0.408, -3.636e-5
0.354, -5.607e-5
0.300, -7.329e-5
0.246, -6.590e-5
0.192, -2.050e-5
0.138, -6.379e-6
0.084, -3.075e-6
0.030, -1.952e-6
0.024, -9.860e-7
0.078, -5.096e-7
0.132, 2.669e-8
0.186, 1.676e-6
0.240, 6.701e-6
0.294, 1.827e-5
0.348, 3.853e-5
0.402, 6.199e-5
0.456, 7.664e-5
0.510, 6.273e-5
0.564, 2.347e-5
0.618, 8.674e-6
0.672, 4.248e-6
0.726, 2.595e-6
0.780, 1.863e-6
0.766, 1.017e-6
0.712, 5.027e-7
0.658, -2.866e-7
0.604, -2.472e-6
0.550, -8.332e-6
0.496, -1.784e-5
0.442, -2.748e-5
0.388, -4.311e-5
0.334, -6.367e-5
0.280, -7.513e-5
0.226, -4.974e-5
0.172, -1.250e-5
0.118, -4.698e-6
0.064, -2.544e-6
0.010, -1.742e-6
0.044, -7.814e-7
0.098, -3.556e-7
0.152, 4.047e-7
0.206, 2.968e-6
0.260, 9.978e-6
0.314, 2.482e-5
0.368, 4.738e-5
0.422, 6.932e-5
0.476, 7.639e-5
0.530, 4.688e-5
0.584, 1.560e-5
0.638, 6.399e-6
0.692, 3.427e-6
0.746, 2.238e-6
0.800, 1.666e-6
0.746, 8.165e-7
0.692, 2.911e-7
0.638, -7.957e-7
0.584, -3.964e-6
0.530, -1.148e-5
0.476, -2.119e-5
0.422, -3.225e-5
0.368, -5.065e-5
0.314, -7.013e-5
0.260, -7.220e-5
0.206, -3.039e-5
0.152, -8.274e-6
0.098, -3.635e-6
0.044, -2.169e-6
0.010, -1.194e-6
0.064, -6.204e-7
0.118, -1.680e-7
0.172, 1.000e-6
0.226, 4.837e-6
0.280, 1.432e-5
0.334, 3.254e-5
0.388, 5.620e-5
0.442, 7.469e-5
0.496, 7.083e-5
0.550, 3.138e-5
0.604, 1.075e-5
0.658, 4.907e-6
0.712, 2.856e-6
0.766, 1.972e-6
0.780, 1.170e-6
0.726, 6.413e-7
0.672, 1.797e-8
0.618, -1.541e-6
0.564, -6.054e-6
0.510, -1.496e-5
0.456, -2.462e-5
0.402, -3.829e-5
0.348, -5.850e-5
0.294, -7.435e-5
0.240, -6.211e-5
0.186, -1.769e-5
0.132, -5.858e-6
0.078, -2.924e-6
0.024, -1.904e-6
0.030, -9.306e-7
0.084, -4.739e-7
0.138, 1.076e-7
0.192, 1.954e-6
0.246, 7.478e-6
0.300, 1.996e-5
0.354, 4.110e-5
0.408, 6.442e-5
0.462, 7.721e-5
0.516, 5.852e-5
0.570, 2.043e-5
0.624, 7.726e-6
0.678, 3.887e-6
0.732, 2.428e-6
0.786, 1.774e-6
0.760, 9.411e-7
0.706, 4.519e-7
0.652, -3.496e-7
0.598, -2.633e-6
0.544, -8.793e-6
0.490, -1.851e-5
0.436, -2.868e-5
0.382, -4.534e-5
0.328, -6.586e-5
0.274, -7.495e-5
0.220, -4.393e-5
0.166, -1.109e-5
0.112, -4.386e-6
0.058, -2.449e-6
0.004, -1.713e-6
0.050, -7.390e-7
0.104, -3.152e-7
0.158, 5.327e-7
0.212, 3.375e-6
0.266, 1.103e-5
0.320, 2.691e-5
0.374, 5.002e-5
0.428, 7.126e-5
0.482, 7.558e-5
0.536, 4.187e-5
0.590, 1.367e-5
0.644, 5.777e-6
0.698, 3.188e-6
0.752, 2.113e-6
0.794, 1.367e-6
0.740, 7.537e-7
0.686, 2.383e-7
0.632, -8.867e-7
0.578, -4.220e-6
0.524, -1.207e-5
0.470, -2.194e-5
0.416, -3.391e-5
0.362, -5.306e-5
0.308, -7.173e-5
0.254, -7.014e-5
0.200, -2.597e-5
0.146, -7.507e-6
0.092, -3.438e-6
0.038, -2.111e-6
0.016, -1.117e-6
0.070, -5.857e-7
0.124, -1.083e-7
0.178, 1.207e-6
0.232, 5.442e-6
0.286, 1.576e-5
0.340, 3.494e-5
0.394, 5.875e-5
0.448, 7.591e-5
0.502, 6.806e-5
0.556, 2.742e-5
0.610, 9.532e-6
0.664, 4.482e-6
0.718, 2.669e-6
0.772, 1.878e-6
0.774, 1.075e-6
0.720, 5.851e-7
0.666, -4.235e-8
0.612, -1.673e-6
0.558, -6.451e-6
0.504, -1.565e-5
0.450, -2.558e-5
0.396, -4.034e-5
0.342, -6.085e-5
0.288, -7.503e-5
0.234, -5.751e-5
0.180, -1.540e-5
0.126, -5.410e-6
0.072, -2.798e-6
0.018, -1.865e-6
0.036, -8.811e-7
0.090, -4.370e-7
0.144, 1.975e-7
0.198, 2.268e-6
0.252, 8.324e-6
0.306, 2.178e-5
0.360, 4.369e-5
0.414, 6.667e-5
0.468, 7.736e-5
0.522, 5.382e-5
0.576, 1.786e-5
0.630, 6.930e-6
0.684, 3.585e-6
0.738, 2.288e-6
0.792, 1.700e-6
0.754, 8.678e-7
0.700, 3.994e-7
0.646, -4.247e-7
0.592, -2.840e-6
0.538, -9.343e-6
0.484, -1.925e-5
0.430, -3.004e-5
0.376, -4.766e-5
0.322, -6.789e-5
0.268, -7.424e-5
0.214, -3.812e-5
0.160, -9.918e-6
0.106, -4.110e-6
0.052, -2.365e-6
0.002, -1.429e-6
0.056, -7.020e-7
0.110, -2.696e-7
0.164, 6.775e-7
0.218, 3.847e-6
0.272, 1.220e-5
0.326, 2.912e-5
0.380, 5.265e-5
0.434, 7.299e-5
0.488, 7.419e-5
0.542, 3.700e-5
0.596, 1.204e-5
0.650, 5.246e-6
0.704, 2.964e-6
0.758, 2.002e-6
0.788, 1.241e-6
0.734, 6.976e-7
0.680, 1.829e-7
0.626, -1.001e-6
0.572, -4.552e-6
0.518, -1.273e-5
0.464, -2.277e-5
0.410, -3.569e-5
0.356, -5.547e-5
0.302, -7.312e-5
0.248, -6.740e-5
0.194, -2.226e-5
0.140, -6.844e-6
0.086, -3.257e-6
0.032, -2.054e-6
0.022, -1.049e-6
0.076, -5.520e-7
0.130, -4.602e-8
0.184, 1.443e-6
0.238, 6.128e-6
0.292, 1.733e-5
0.346, 3.745e-5
0.400, 6.127e-5
0.454, 7.684e-5
0.508, 6.459e-5
0.562, 2.387e-5
0.616, 8.496e-6
0.670, 4.112e-6
0.724, 2.503e-6
0.778, 1.795e-6
0.768, 9.919e-7
0.714, 5.306e-7
0.660, -1.082e-7
0.606, -1.843e-6
0.552, -6.927e-6
0.498, -1.639e-5
0.444, -2.667e-5
0.390, -4.246e-5
0.336, -6.311e-5
0.282, -7.536e-5
0.228, -5.228e-5
0.174, -1.352e-5
0.120, -5.012e-6
0.066, -2.679e-6
0.012, -1.826e-6
0.042, -8.331e-7
0.096, -3.982e-7
0.150, 3.020e-7
0.204, 2.636e-6
0.258, 9.284e-6
0.312, 2.379e-5
0.366, 4.636e-5
0.420, 6.882e-5
0.474, 7.711e-5
0.528, 4.874e-5
0.582, 1.561e-5
0.636, 6.253e-6
0.690, 3.322e-6
0.744, 2.167e-6
0.798, 1.640e-6
0.748, 8.070e-7
0.694, 3.476e-7
0.640, -5.168e-7
0.586, -3.105e-6
0.532, -9.978e-6
0.478, -2.003e-5
0.424, -3.154e-5
0.370, -5.001e-5
0.316, -6.972e-5
0.262, -7.304e-5
0.208, -3.278e-5
0.154, -8.911e-6
0.100, -3.859e-6
0.046, -2.281e-6
0.008, -1.274e-6
0.062, -6.608e-7
0.116, -2.211e-7
0.170, 8.432e-7
0.224, 4.389e-6
0.278, 1.350e-5
0.332, 3.146e-5
0.386, 5.529e-5
0.440, 7.452e-5
0.494, 7.221e-5
0.548, 3.243e-5
0.602, 1.066e-5
0.656, 4.794e-6
0.710, 2.775e-6
0.764, 1.916e-6
0.782, 1.145e-6
0.728, 6.483e-7
0.674, 1.253e-7
0.620, -1.133e-6
0.566, -4.943e-6
0.512, -1.349e-5
0.458, -2.369e-5
0.404, -3.763e-5
0.350, -5.787e-5
0.296, -7.421e-5
0.242, -6.386e-5
0.188, -1.918e-5
0.134, -6.267e-6
0.080, -3.096e-6
0.026, -1.999e-6
0.028, -9.876e-7
0.082, -5.147e-7
0.136, 2.867e-8
0.190, 1.712e-6
0.244, 6.885e-6
0.298, 1.901e-5
0.352, 4.001e-5
0.406, 6.368e-5
0.460, 7.745e-5
0.514, 6.049e-5
0.568, 2.079e-5
0.622, 7.626e-6
0.676, 3.801e-6
0.730, 2.365e-6
0.784, 1.723e-6
0.762, 9.269e-7
0.708, 4.795e-7
0.654, -1.820e-7
0.600, -2.046e-6
0.546, -7.482e-6
0.492, -1.720e-5
0.438, -2.791e-5
0.384, -4.469e-5
0.330, -6.531e-5
0.276, -7.527e-5
0.222, -4.648e-5
0.168, -1.196e-5
0.114, -4.661e-6
0.060, -2.577e-6
0.006, -1.789e-6
0.048, -7.843e-7
0.102, -3.562e-7
0.156, 4.230e-7
0.210, 3.048e-6
0.264, 1.034e-5
0.318, 2.590e-5
0.372, 4.904e-5
0.426, 7.082e-5
0.480, 7.639e-5
0.534, 4.353e-5
0.588, 1.369e-5
0.642, 5.680e-6
0.696, 3.113e-6
0.750, 2.060e-6
0.796, 1.351e-6
0.742, 7.498e-7
0.688, 2.973e-7
0.634, -6.220e-7
0.580, -3.416e-6
0.526, -1.068e-5
0.472, -2.087e-5
0.418, -3.319e-5
0.364, -5.238e-5
0.310, -7.138e-5
0.256, -7.122e-5
0.202, -2.804e-5
0.148, -8.027e-6
0.094, -3.626e-6
0.040, -2.203e-6
0.014, -1.178e-6
0.068, -6.215e-7
0.122, -1.617e-7
0.176, 1.047e-6
0.230, 5.005e-6
0.284, 1.496e-5
0.338, 3.392e-5
0.392, 5.794e-5
0.446, 7.583e-5
0.500, 6.952e-5
0.554, 2.819e-5
0.608, 9.459e-6
0.662, 4.398e-6
0.716, 2.609e-6
0.770, 1.832e-6
0.776, 1.058e-6
0.722, 5.954e-7
0.668, 5.938e-8
0.614, -1.290e-6
0.560, -5.409e-6
0.506, -1.429e-5
0.452, -2.471e-5
0.398, -3.964e-5
0.344, -6.020e-5
0.290, -7.501e-5
0.236, -5.960e-5
0.182, -1.663e-5
0.128, -5.747e-6
0.074, -2.938e-6
0.020, -1.945e-6
0.034, -9.268e-7
0.088, -4.723e-7
0.142, 1.271e-7
0.196, 2.033e-6
0.250, 7.772e-6
0.304, 2.089e-5
0.358, 4.270e-5
0.412, 6.608e-5
0.466, 7.774e-5
0.520, 5.566e-5
0.574, 1.807e-5
0.628, 6.849e-6
0.682, 3.521e-6
0.736, 2.240e-6
0.790, 1.664e-6
0.756, 8.600e-7
0.702, 4.311e-7
0.648, -2.647e-7
0.594, -2.283e-6
0.540, -8.113e-6
0.486, -1.804e-5
0.432, -2.926e-5
0.378, -4.696e-5
0.324, -6.735e-5
0.270, -7.478e-5
0.216, -4.069e-5
0.162, -1.062e-5
0.108, -4.335e-6
0.054, -2.468e-6
0.000, -1.707e-6
0.054, -7.347e-7
0.108, -3.073e-7
0.162, 5.704e-7
0.216, 3.516e-6
0.270, 1.152e-5
0.324, 2.812e-5
0.378, 5.170e-5
0.432, 7.265e-5
0.486, 7.516e-5
0.540, 3.836e-5
0.594, 1.206e-5
0.648, 5.180e-6
0.702, 2.916e-6
0.756, 1.967e-6
0.790, 1.229e-6
0.736, 6.983e-7
0.682, 2.405e-7
0.628, -7.408e-7
0.574, -3.775e-6
0.520, -1.145e-5
0.466, -2.178e-5
0.412, -3.498e-5
0.358, -5.479e-5
0.304, -7.284e-5
0.250, -6.866e-5
0.196, -2.395e-5
0.142, -7.274e-6
0.088, -3.419e-6
0.034, -2.132e-6
0.020, -1.097e-6
0.074, -5.794e-7
0.128, -9.208e-8
0.182, 1.274e-6
0.236, 5.659e-6
0.290, 1.647e-5
0.344, 3.633e-5
0.398, 6.040e-5
0.452, 7.685e-5
0.506, 6.627e-5
0.560, 2.452e-5
0.614, 8.472e-6
0.668, 4.067e-6
0.722, 2.468e-6
0.776, 1.762e-6
0.770, 9.827e-7
0.716, 5.461e-7
0.662, -7.980e-9
0.608, -1.465e-6
0.554, -5.925e-6
0.500, -1.513e-5
0.446, -2.584e-5
0.392, -4.178e-5
0.338, -6.251e-5
0.284, -7.543e-5
0.230, -5.435e-5
0.176, -1.447e-5
0.122, -5.285e-6
0.068, -2.795e-6
0.014, -1.888e-6
0.040, -8.659e-7
0.094, -4.253e-7
0.148, 2.279e-7
0.202, 2.370e-6
0.256, 8.670e-6
0.310, 2.278e-5
0.364, 4.525e-5
0.418, 6.818e-5
0.472, 7.762e-5
0.526, 5.056e-5
0.580, 1.579e-5
0.634, 6.211e-6
0.688, 3.286e-6
0.742, 2.136e-6
0.796, 1.611e-6
0.750, 8.047e-7
0.696, 3.797e-7
0.642, -3.515e-7
0.588, -2.544e-6
0.534, -8.788e-6
0.480, -1.890e-5
0.426, -3.075e-5
0.372, -4.929e-5
0.318, -6.924e-5
0.264, -7.366e-5
0.210, -3.493e-5
0.156, -9.472e-6
0.102, -4.044e-6
0.048, -2.369e-6
0.006, -1.339e-6
0.060, -6.873e-7
0.114, -2.530e-7
0.168, 7.281e-7
0.222, 4.022e-6
0.276, 1.277e-5
0.330, 3.040e-5
0.384, 5.433e-5
0.438, 7.423e-5
0.492, 7.329e-5
0.546, 3.345e-5
0.600, 1.065e-5
0.654, 4.744e-6
0.708, 2.739e-6
0.762, 1.885e-6
0.784, 1.136e-6
0.730, 6.519e-7
0.676, 1.864e-7
0.622, -8.705e-7
0.568, -4.156e-6
0.514, -1.223e-5
0.460, -2.271e-5
0.406, -3.684e-5
0.352, -5.713e-5
0.298, -7.397e-5
0.244, -6.534e-5
0.190, -2.055e-5
0.136, -6.619e-6
0.082, -3.227e-6
0.028, -2.068e-6
0.026, -1.023e-6
0.080, -5.365e-7
0.134, -1.898e-8
0.188, 1.529e-6
0.242, 6.393e-6
0.296, 1.814e-5
0.350, 3.893e-5
0.404, 6.288e-5
0.458, 7.753e-5
0.512, 6.209e-5
0.566, 2.115e-5
0.620, 7.586e-6
0.674, 3.761e-6
0.728, 2.333e-6
0.782, 1.698e-6
0.764, 9.205e-7
0.710, 4.967e-7
0.656, -7.514e-8
0.602, -1.646e-6
0.548, -6.463e-6
0.494, -1.596e-5
0.440, -2.703e-5
0.386, -4.390e-5
0.332, -6.463e-5
0.278, -7.544e-5
0.224, -4.876e-5
0.170, -1.274e-5
0.116, -4.899e-6
0.062, -2.673e-6
0.008, -1.847e-6
0.046, -8.142e-7
0.100, -3.795e-7
0.154, 3.434e-7
0.208, 2.773e-6
0.262, 9.714e-6
0.316, 2.490e-5
0.370, 4.799e-5
0.424, 7.025e-5
0.478, 7.696e-5
0.532, 4.497e-5
0.586, 1.376e-5
0.640, 5.632e-6
0.694, 3.075e-6
0.748, 2.030e-6
0.798, 1.366e-6
0.744, 7.483e-7
0.690, 3.315e-7
0.636, -4.488e-7
0.582, -2.830e-6
0.528, -9.497e-6
0.474, -1.977e-5
0.420, -3.235e-5
0.366, -5.160e-5
0.312, -7.087e-5
0.258, -7.196e-5
0.204, -2.992e-5
0.150, -8.515e-6
0.096, -3.797e-6
0.042, -2.286e-6
0.012, -1.233e-6
0.066, -6.456e-7
0.120, -1.990e-7
0.174, 9.131e-7
0.228, 4.597e-6
0.282, 1.416e-5
0.336, 3.282e-5
0.390, 5.695e-5
0.444, 7.556e-5
0.498, 7.072e-5
0.552, 2.896e-5
0.606, 9.454e-6
0.660, 4.361e-6
0.714, 2.581e-6
0.768, 1.808e-6
0.778, 1.052e-6
0.724, 6.032e-7
0.670, 1.295e-7
0.616, -1.016e-6
0.562, -4.596e-6
0.508, -1.304e-5
0.454, -2.373e-5
0.400, -3.880e-5
0.346, -5.942e-5
0.292, -7.478e-5
0.238, -6.123e-5
0.184, -1.779e-5
0.130, -6.068e-6
0.076, -3.068e-6
0.022, -2.011e-6
0.032, -9.650e-7
0.086, -4.986e-7
0.140, 6.433e-8
0.194, 1.819e-6
0.248, 7.229e-6
0.302, 1.995e-5
0.356, 4.158e-5
0.410, 6.527e-5
0.464, 7.787e-5
0.518, 5.727e-5
0.572, 1.832e-5
0.626, 6.818e-6
0.680, 3.488e-6
0.734, 2.216e-6
0.788, 1.641e-6
0.758, 8.556e-7
0.704, 4.502e-7
0.650, -1.546e-7
0.596, -1.868e-6
0.542, -7.076e-6
0.488, -1.685e-5
0.434, -2.838e-5
0.380, -4.612e-5
0.326, -6.665e-5
0.272, -7.499e-5
0.218, -4.288e-5
0.164, -1.131e-5
0.110, -4.559e-6
0.056, -2.571e-6
0.002, -1.810e-6
0.052, -7.667e-7
0.106, -3.393e-7
0.160, 4.704e-7
0.214, 3.207e-6
0.268, 1.083e-5
0.322, 2.706e-5
0.376, 5.064e-5
0.430, 7.208e-5
0.484, 7.579e-5
0.538, 3.967e-5
0.592, 1.212e-5
0.646, 5.152e-6
0.700, 2.891e-6
0.754, 1.948e-6
0.792, 1.228e-6
0.738, 7.004e-7
0.684, 2.836e-7
0.630, -5.579e-7
0.576, -3.166e-6
0.522, -1.027e-5
0.468, -2.072e-5
0.414, -3.411e-5
0.360, -5.395e-5
0.306, -7.235e-5
0.252, -6.960e-5
0.198, -2.560e-5
0.144, -7.707e-6
0.090, -3.580e-6
0.036, -2.215e-6
0.018, -1.149e-6
0.072, -6.098e-7
0.126, -1.394e-7
0.180, 1.121e-6
0.234, 5.230e-6
0.288, 1.567e-5
0.342, 3.529e-5
0.396, 5.949e-5
0.450, 7.661e-5
0.504, 6.748e-5
0.558, 2.509e-5
0.612, 8.462e-6
0.666, 4.034e-6
0.720, 2.444e-6
0.774, 1.741e-6
0.772, 9.779e-7
0.718, 5.566e-7
0.664, 6.443e-8
0.610, -1.181e-6
0.556, -5.097e-6
0.502, -1.392e-5
0.448, -2.491e-5
0.394, -4.093e-5
0.340, -6.170e-5
0.287, -7.528e-5
0.233, -5.627e-5
0.179, -1.547e-5
0.125, -5.583e-6
0.071, -2.920e-6
0.017, -1.962e-6
0.037, -9.093e-7
0.091, -4.589e-7
0.145, 1.574e-7
0.199, 2.138e-6
0.253, 8.114e-6
0.307, 2.184e-5
0.361, 4.418e-5
0.415, 6.744e-5
0.469, 7.782e-5
0.523, 5.215e-5
0.577, 1.601e-5
0.631, 6.196e-6
0.685, 3.267e-6
0.739, 2.116e-6
0.793, 1.592e-6
0.753, 8.035e-7
0.699, 4.053e-7
0.645, -2.371e-7
0.591, -2.120e-6
0.537, -7.761e-6
0.483, -1.779e-5
0.429, -2.990e-5
0.375, -4.847e-5
0.321, -6.856e-5
0.267, -7.402e-5
0.213, -3.704e-5
0.159, -1.008e-5
0.105, -4.255e-6
0.051, -2.473e-6
0.003, -1.431e-6
0.057, -7.236e-7
0.111, -2.930e-7
0.165, 6.207e-7
0.219, 3.679e-6
0.273, 1.206e-5
0.327, 2.933e-5
0.381, 5.327e-5
0.435, 7.371e-5
0.489, 7.411e-5
0.543, 3.464e-5
0.597, 1.074e-5
0.651, 4.735e-6
0.705, 2.725e-6
0.759, 1.870e-6
0.787, 1.136e-6
0.733, 6.571e-7
0.679, 2.298e-7
0.625, -6.788e-7
0.571, -3.547e-6
0.517, -1.110e-5
0.463, -2.174e-5
0.409, -3.602e-5
0.355, -5.632e-5
0.301, -7.354e-5
0.247, -6.647e-5
0.193, -2.196e-5
0.139, -7.016e-6
0.085, -3.387e-6
0.031, -2.147e-6
0.023, -1.078e-6
0.077, -5.701e-7
0.131, -7.158e-8
0.185, 1.353e-6
0.239, 5.925e-6
0.293, 1.728e-5
0.347, 3.778e-5
0.401, 6.193e-5
0.455, 7.742e-5
0.509, 6.362e-5
0.563, 2.170e-5
0.617, 7.619e-6
0.671, 3.752e-6
0.725, 2.323e-6
0.779, 1.686e-6
0.767, 9.208e-7
0.713, 5.103e-7
0.659, -3.225e-9
0.605, -1.363e-6
0.551, -5.650e-6
0.497, -1.484e-5
0.443, -2.617e-5
0.389, -4.312e-5
0.335, -6.389e-5
0.281, -7.537e-5
0.227, -5.065e-5
0.173, -1.356e-5
0.119, -5.159e-6
0.065, -2.788e-6
0.011, -1.912e-6
0.043, -8.545e-7
0.097, -4.134e-7
0.151, 2.636e-7
0.205, 2.496e-6
0.259, 9.069e-6
0.313, 2.381e-5
0.367, 4.675e-5
0.421, 6.945e-5
0.475, 7.738e-5
0.529, 4.678e-5
0.583, 1.403e-5
0.637, 5.662e-6
0.691, 3.077e-6
0.745, 2.025e-6
0.799, 1.511e-6
0.747, 7.515e-7
0.693, 3.568e-7
0.639, -3.264e-7
0.585, -2.398e-6
0.531, -8.494e-6
0.477, -1.876e-5
0.423, -3.155e-5
0.369, -5.083e-5
0.315, -7.029e-5
0.261, -7.238e-5
0.207, -3.164e-5
0.153, -9.036e-6
0.099, -3.986e-6
0.045, -2.379e-6
0.009, -1.298e-6
0.063, -6.773e-7
0.117, -2.384e-7
0.171, 7.788e-7
0.225, 4.190e-6
0.279, 1.332e-5
0.333, 3.157e-5
0.387, 5.575e-5
0.441, 7.507e-5
0.495, 7.187e-5
0.549, 3.011e-5
0.603, 9.589e-6
0.657, 4.383e-6
0.711, 2.584e-6
0.765, 1.804e-6
0.781, 1.056e-6
0.727, 6.136e-7
0.673, 1.774e-7
0.619, -8.149e-7
0.565, -3.965e-6
0.511, -1.197e-5
0.457, -2.284e-5
0.403, -3.802e-5
0.349, -5.867e-5
0.295, -7.442e-5
0.241, -6.235e-5
0.187, -1.887e-5
0.133, -6.399e-6
0.079, -3.203e-6
0.025, -2.085e-6
0.029, -1.008e-6
0.083, -5.258e-7
0.137, 5.987e-9
0.191, 1.613e-6
0.245, 6.668e-6
0.299, 1.894e-5
0.353, 4.029e-5
0.407, 6.424e-5
0.461, 7.784e-5
0.515, 5.905e-5
0.569, 1.881e-5
0.623, 6.878e-6
0.677, 3.499e-6
0.731, 2.216e-6
0.785, 1.635e-6
0.761, 8.610e-7
0.707, 4.677e-7
0.653, -7.029e-8
0.599, -1.561e-6
0.545, -6.236e-6
0.491, -1.576e-5
0.437, -2.753e-5
0.383, -4.532e-5
0.329, -6.595e-5
0.275, -7.499e-5
0.221, -4.463e-5
0.167, -1.198e-5
0.113, -4.781e-6
0.059, -2.669e-6
0.005, -1.869e-6
0.049, -8.036e-7
0.103, -3.688e-7
0.157, 3.783e-7
0.211, 2.895e-6
0.265, 1.013e-5
0.319, 2.592e-5
0.373, 4.940e-5
0.427, 7.135e-5
0.481, 7.635e-5
0.535, 4.119e-5
0.589, 1.231e-5
0.643, 5.175e-6
0.697, 2.894e-6
0.751, 1.944e-6
0.795, 1.240e-6
0.741, 7.050e-7
0.687, 3.138e-7
0.633, -4.221e-7
0.579, -2.700e-6
0.525, -9.260e-6
0.471, -1.973e-5
0.417, -3.327e-5
0.363, -5.312e-5
0.309, -7.175e-5
0.255, -7.015e-5
0.201, -2.708e-5
0.147, -8.148e-6
0.093, -3.748e-6
0.039, -2.299e-6
0.015, -1.205e-6
0.069, -6.386e-7
0.123, -1.838e-7
0.177, 9.656e-7
0.231, 4.788e-6
0.285, 1.478e-5
0.339, 3.404e-5
0.393, 5.835e-5
0.447, 7.623e-5
0.501, 6.875e-5
0.555, 2.589e-5
0.609, 8.550e-6
0.663, 4.049e-6
0.717, 2.446e-6
0.771, 1.737e-6
0.775, 9.831e-7
0.721, 5.688e-7
0.667, 1.208e-7
0.613, -9.667e-7
0.559, -4.426e-6
0.505, -1.284e-5
0.451, -2.399e-5
0.397, -4.006e-5
0.343, -6.088e-5
0.289, -7.495e-5
0.235, -5.764e-5
0.181, -1.642e-5
0.127, -5.890e-6
0.073, -3.052e-6
0.019, -2.033e-6
0.035, -9.521e-7
0.089, -4.904e-7
0.143, 8.781e-8
0.197, 1.904e-6
0.251, 7.515e-6
0.305, 2.077e-5
0.359, 4.289e-5
0.413, 6.648e-5
0.467, 7.788e-5
0.521, 5.386e-5
0.575, 1.636e-5
0.629, 6.243e-6
0.683, 3.276e-6
0.737, 2.117e-6
0.791, 1.586e-6
0.755, 8.086e-7
0.701, 4.266e-7
0.647, -1.473e-7
0.593, -1.785e-6
0.539, -6.884e-6
0.485, -1.673e-5
0.431, -2.902e-5
0.377, -4.758e-5
0.323, -6.782e-5
0.269, -7.409e-5
0.215, -3.880e-5
0.161, -1.068e-5
0.107, -4.473e-6
0.053, -2.577e-6
0.001, -1.545e-6
0.055, -7.596e-7
0.109, -3.300e-7
0.163, 5.047e-7
0.217, 3.318e-6
0.271, 1.127e-5
0.325, 2.810e-5
0.379, 5.197e-5
0.433, 7.298e-5
0.487, 7.481e-5
0.541, 3.602e-5
0.595, 1.092e-5
0.649, 4.771e-6
0.703, 2.734e-6
0.757, 1.871e-6
0.789, 1.147e-6
0.735, 6.652e-7
0.681, 2.662e-7
0.627, -5.318e-7
0.573, -3.045e-6
0.519, -1.008e-5
0.465, -2.079e-5
0.411, -3.514e-5
0.357, -5.546e-5
0.303, -7.297e-5
0.249, -6.711e-5
0.195, -2.323e-5
0.141, -7.423e-6
0.087, -3.553e-6
0.033, -2.235e-6
0.021, -1.133e-6
0.075, -6.053e-7
0.129, -1.272e-7
0.183, 1.172e-6
0.237, 5.421e-6
0.291, 1.631e-5
0.345, 3.647e-5
0.399, 6.077e-5
0.453, 7.706e-5
0.507, 6.507e-5
0.561, 2.239e-5
0.615, 7.711e-6
0.669, 3.775e-6
0.723, 2.329e-6
0.777, 1.684e-6
0.769, 9.271e-7
0.715, 5.254e-7
0.661, 5.938e-8
0.607, -1.131e-6
0.553, -4.944e-6
0.499, -1.378e-5
0.445, -2.528e-5
0.391, -4.223e-5
0.337, -6.304e-5
0.283, -7.510e-5
0.229, -5.219e-5
0.175, -1.439e-5
0.121, -5.439e-6
0.067, -2.914e-6
0.013, -1.986e-6
0.041, -8.988e-7
0.095, -4.509e-7
0.149, 1.846e-7
0.203, 2.240e-6
0.257, 8.441e-6
0.311, 2.277e-5
0.365, 4.556e-5
0.419, 6.861e-5
0.473, 7.754e-5
0.527, 4.834e-5
0.581, 1.429e-5
0.635, 5.714e-6
0.689, 3.101e-6
0.743, 2.043e-6
0.797, 1.560e-6
0.749, 7.652e-7
0.695, 3.817e-7
0.641, -2.349e-7
0.587, -2.055e-6
0.533, -7.611e-6
0.479, -1.774e-5
0.425, -3.065e-5
0.371, -4.992e-5
0.317, -6.957e-5
0.263, -7.271e-5
0.209, -3.344e-5
0.155, -9.588e-6
0.101, -4.201e-6
0.047, -2.496e-6
0.007, -1.388e-6
0.061, -7.246e-7
0.115, -2.847e-7
0.169, 6.644e-7
0.223, 3.838e-6
0.277, 1.259e-5
0.331, 3.047e-5
0.385, 5.467e-5
0.439, 7.455e-5
0.493, 7.267e-5
0.547, 3.112e-5
0.601, 9.724e-6
0.655, 4.429e-6
0.709, 2.611e-6
0.763, 1.822e-6
0.783, 1.078e-6
0.729, 6.263e-7
0.675, 2.126e-7
0.621, -6.625e-7
0.567, -3.459e-6
0.513, -1.097e-5
0.459, -2.191e-5
0.405, -3.712e-5
0.351, -5.776e-5
0.297, -7.394e-5
0.243, -6.350e-5
0.189, -2.008e-5
0.135, -6.780e-6
0.081, -3.376e-6
0.027, -2.181e-6
0.003, -1.912e-6