File: Data/2022-03-23 MQ HCF/CV-Carbon-CuHCF-1.txt
Mar. 22, 2022   17:59:15
Cyclic Voltammetry
File: d:\mq\20220322-pba stability\cv-carbon-cuhcf-1.txt
Data Source:  Experiment
Instrument Model:  CHI840D
Header:
Note:

Init E (V) = 0.2
High E (V) = 1.1
Low E (V) = 0.2
Init P/N = P
Scan Rate (V/s) = 0.05
Segment = 100
Sample Interval (V) = 0.001
Quiet Time (sec) = 2
Sensitivity (A/V) = 1e-5

Segment 1:

Segment 2:

Segment 3:

Segment 4:

Segment 5:

Segment 6:

Segment 7:

Segment 8:

Segment 9:

Segment 10:

Segment 11:

Segment 12:

Segment 13:

Segment 14:

Segment 15:

Segment 16:

Segment 17:

Segment 18:

Segment 19:

Segment 20:

Segment 21:

Segment 22:

Segment 23:

Segment 24:

Segment 25:

Segment 26:

Segment 27:

Segment 28:

Segment 29:

Segment 30:

Segment 31:

Segment 32:

Segment 33:

Segment 34:

Segment 35:

Segment 36:

Segment 37:

Segment 38:

Segment 39:

Segment 40:

Segment 41:

Segment 42:

Segment 43:

Segment 44:

Segment 45:

Segment 46:

Segment 47:

Segment 48:

Segment 49:

Segment 50:

Segment 51:

Segment 52:

Segment 53:

Segment 54:

Segment 55:

Segment 56:

Segment 57:

Segment 58:

Segment 59:

Segment 60:

Segment 61:

Segment 62:

Segment 63:

Segment 64:

Segment 65:

Segment 66:

Segment 67:

Segment 68:

Segment 69:

Segment 70:

Segment 71:

Segment 72:

Segment 73:

Segment 74:

Segment 75:

Segment 76:

Segment 77:

Segment 78:

Segment 79:

Segment 80:

Segment 81:

Segment 82:

Segment 83:

Segment 84:

Segment 85:

Segment 86:

Segment 87:

Segment 88:

Segment 89:

Segment 90:

Segment 91:

Segment 92:

Segment 93:

Segment 94:

Segment 95:

Segment 96:

Segment 97:

Segment 98:

Segment 99:

Segment 100:

Potential/V, Current/A

0.200, -2.819e-6
0.260, -1.084e-6
0.320, -5.235e-7
0.380, -2.228e-8
0.440, 7.188e-7
0.500, 2.142e-6
0.560, 4.875e-6
0.620, 8.827e-6
0.680, 1.284e-5
0.740, 1.549e-5
0.800, 1.566e-5
0.860, 1.158e-5
0.920, 5.013e-6
0.980, 2.456e-6
1.040, 1.648e-6
1.100, 1.461e-6
1.040, 5.708e-7
0.980, 1.833e-7
0.920, -3.674e-7
0.860, -1.332e-6
0.800, -2.686e-6
0.740, -4.485e-6
0.680, -6.738e-6
0.620, -9.164e-6
0.560, -1.173e-5
0.500, -1.418e-5
0.440, -1.549e-5
0.380, -8.072e-6
0.320, -2.727e-6
0.260, -1.555e-6
0.200, -1.134e-6
0.260, -5.003e-7
0.320, -2.511e-7
0.380, 1.157e-7
0.440, 7.658e-7
0.500, 2.122e-6
0.560, 4.812e-6
0.620, 8.736e-6
0.680, 1.274e-5
0.740, 1.542e-5
0.800, 1.570e-5
0.860, 1.184e-5
0.920, 5.245e-6
0.980, 2.472e-6
1.040, 1.588e-6
1.100, 1.383e-6
1.040, 5.162e-7
0.980, 1.474e-7
0.920, -3.792e-7
0.860, -1.316e-6
0.800, -2.648e-6
0.740, -4.428e-6
0.680, -6.667e-6
0.620, -9.091e-6
0.560, -1.164e-5
0.500, -1.404e-5
0.440, -1.526e-5
0.380, -8.053e-6
0.320, -2.866e-6
0.260, -1.646e-6
0.200, -1.196e-6
0.260, -5.345e-7
0.320, -2.791e-7
0.380, 7.590e-8
0.440, 6.976e-7
0.500, 2.039e-6
0.560, 4.709e-6
0.620, 8.597e-6
0.680, 1.256e-5
0.740, 1.521e-5
0.800, 1.551e-5
0.860, 1.178e-5
0.920, 5.410e-6
0.980, 2.532e-6
1.040, 1.581e-6
1.100, 1.351e-6
1.040, 4.883e-7
0.980, 1.307e-7
0.920, -3.760e-7
0.860, -1.283e-6
0.800, -2.586e-6
0.740, -4.344e-6
0.680, -6.557e-6
0.620, -8.970e-6
0.560, -1.149e-5
0.500, -1.383e-5
0.440, -1.492e-5
0.380, -7.923e-6
0.320, -3.001e-6
0.260, -1.741e-6
0.200, -1.262e-6
0.260, -5.699e-7
0.320, -3.085e-7
0.380, 3.547e-8
0.440, 6.293e-7
0.500, 1.945e-6
0.560, 4.583e-6
0.620, 8.421e-6
0.680, 1.231e-5
0.740, 1.492e-5
0.800, 1.522e-5
0.860, 1.161e-5
0.920, 5.543e-6
0.980, 2.609e-6
1.040, 1.598e-6
1.100, 1.341e-6
1.040, 4.750e-7
0.980, 1.245e-7
0.920, -3.636e-7
0.860, -1.239e-6
0.800, -2.504e-6
0.740, -4.232e-6
0.680, -6.413e-6
0.620, -8.811e-6
0.560, -1.130e-5
0.500, -1.357e-5
0.440, -1.449e-5
0.380, -7.720e-6
0.320, -3.127e-6
0.260, -1.841e-6
0.200, -1.337e-6
0.260, -6.104e-7
0.320, -3.421e-7
0.380, -8.456e-9
0.440, 5.605e-7
0.500, 1.849e-6
0.560, 4.442e-6
0.620, 8.219e-6
0.680, 1.202e-5
0.740, 1.455e-5
0.800, 1.484e-5
0.860, 1.137e-5
0.920, 5.647e-6
0.980, 2.695e-6
1.040, 1.630e-6
1.100, 1.344e-6
1.040, 4.701e-7
0.980, 1.242e-7
0.920, -3.481e-7
0.860, -1.192e-6
0.800, -2.416e-6
0.740, -4.109e-6
0.680, -6.254e-6
0.620, -8.632e-6
0.560, -1.108e-5
0.500, -1.329e-5
0.440, -1.403e-5
0.380, -7.488e-6
0.320, -3.226e-6
0.260, -1.932e-6
0.200, -1.409e-6
0.260, -6.499e-7
0.320, -3.755e-7
0.380, -5.096e-8
0.440, 4.971e-7
0.500, 1.756e-6
0.560, 4.304e-6
0.620, 8.017e-6
0.680, 1.171e-5
0.740, 1.416e-5
0.800, 1.442e-5
0.860, 1.109e-5
0.920, 5.713e-6
0.980, 2.780e-6
1.040, 1.668e-6
1.100, 1.359e-6
1.040, 4.720e-7
0.980, 1.288e-7
0.920, -3.307e-7
0.860, -1.146e-6
0.800, -2.330e-6
0.740, -3.984e-6
0.680, -6.091e-6
0.620, -8.444e-6
0.560, -1.085e-5
0.500, -1.300e-5
0.440, -1.355e-5
0.380, -7.249e-6
0.320, -3.293e-6
0.260, -2.006e-6
0.200, -1.473e-6
0.260, -6.845e-7
0.320, -4.057e-7
0.380, -8.987e-8
0.440, 4.413e-7
0.500, 1.672e-6
0.560, 4.174e-6
0.620, 7.818e-6
0.680, 1.141e-5
0.740, 1.376e-5
0.800, 1.398e-5
0.860, 1.077e-5
0.920, 5.740e-6
0.980, 2.854e-6
1.040, 1.707e-6
1.100, 1.375e-6
1.040, 4.760e-7
0.980, 1.343e-7
0.920, -3.141e-7
0.860, -1.104e-6
0.800, -2.252e-6
0.740, -3.866e-6
0.680, -5.932e-6
0.620, -8.259e-6
0.560, -1.063e-5
0.500, -1.271e-5
0.440, -1.308e-5
0.380, -7.023e-6
0.320, -3.333e-6
0.260, -2.063e-6
0.200, -1.524e-6
0.260, -7.140e-7
0.320, -4.319e-7
0.380, -1.240e-7
0.440, 3.920e-7
0.500, 1.598e-6
0.560, 4.056e-6
0.620, 7.636e-6
0.680, 1.114e-5
0.740, 1.339e-5
0.800, 1.355e-5
0.860, 1.045e-5
0.920, 5.728e-6
0.980, 2.910e-6
1.040, 1.739e-6
1.100, 1.389e-6
1.040, 4.798e-7
0.980, 1.395e-7
0.920, -2.999e-7
0.860, -1.069e-6
0.800, -2.185e-6
0.740, -3.763e-6
0.680, -5.790e-6
0.620, -8.091e-6
0.560, -1.042e-5
0.500, -1.245e-5
0.440, -1.266e-5
0.380, -6.822e-6
0.320, -3.349e-6
0.260, -2.101e-6
0.200, -1.563e-6
0.260, -7.354e-7
0.320, -4.523e-7
0.380, -1.508e-7
0.440, 3.529e-7
0.500, 1.536e-6
0.560, 3.954e-6
0.620, 7.474e-6
0.680, 1.088e-5
0.740, 1.306e-5
0.800, 1.317e-5
0.860, 1.015e-5
0.920, 5.695e-6
0.980, 2.951e-6
1.040, 1.766e-6
1.100, 1.402e-6
1.040, 4.833e-7
0.980, 1.440e-7
0.920, -2.878e-7
0.860, -1.039e-6
0.800, -2.126e-6
0.740, -3.671e-6
0.680, -5.662e-6
0.620, -7.936e-6
0.560, -1.022e-5
0.500, -1.220e-5
0.440, -1.225e-5
0.380, -6.624e-6
0.320, -3.346e-6
0.260, -2.123e-6
0.200, -1.589e-6
0.260, -7.494e-7
0.320, -4.661e-7
0.380, -1.717e-7
0.440, 3.200e-7
0.500, 1.478e-6
0.560, 3.855e-6
0.620, 7.315e-6
0.680, 1.064e-5
0.740, 1.273e-5
0.800, 1.279e-5
0.860, 9.855e-6
0.920, 5.658e-6
0.980, 2.990e-6
1.040, 1.796e-6
1.100, 1.417e-6
1.040, 4.885e-7
0.980, 1.497e-7
0.920, -2.748e-7
0.860, -1.008e-6
0.800, -2.068e-6
0.740, -3.579e-6
0.680, -5.532e-6
0.620, -7.778e-6
0.560, -1.002e-5
0.500, -1.195e-5
0.440, -1.185e-5
0.380, -6.436e-6
0.320, -3.337e-6
0.260, -2.142e-6
0.200, -1.612e-6
0.260, -7.609e-7
0.320, -4.774e-7
0.380, -1.894e-7
0.440, 2.903e-7
0.500, 1.425e-6
0.560, 3.761e-6
0.620, 7.161e-6
0.680, 1.039e-5
0.740, 1.240e-5
0.800, 1.241e-5
0.860, 9.556e-6
0.920, 5.603e-6
0.980, 3.025e-6
1.040, 1.827e-6
1.100, 1.436e-6
1.040, 4.959e-7
0.980, 1.569e-7
0.920, -2.613e-7
0.860, -9.761e-7
0.800, -2.008e-6
0.740, -3.485e-6
0.680, -5.400e-6
0.620, -7.616e-6
0.560, -9.816e-6
0.500, -1.169e-5
0.440, -1.143e-5
0.380, -6.244e-6
0.320, -3.322e-6
0.260, -2.157e-6
0.200, -1.631e-6
0.260, -7.710e-7
0.320, -4.881e-7
0.380, -2.061e-7
0.440, 2.621e-7
0.500, 1.374e-6
0.560, 3.668e-6
0.620, 7.006e-6
0.680, 1.014e-5
0.740, 1.207e-5
0.800, 1.201e-5
0.860, 9.250e-6
0.920, 5.536e-6
0.980, 3.053e-6
1.040, 1.859e-6
1.100, 1.456e-6
1.040, 5.044e-7
0.980, 1.650e-7
0.920, -2.464e-7
0.860, -9.435e-7
0.800, -1.947e-6
0.740, -3.391e-6
0.680, -5.266e-6
0.620, -7.452e-6
0.560, -9.605e-6
0.500, -1.142e-5
0.440, -1.101e-5
0.380, -6.060e-6
0.320, -3.303e-6
0.260, -2.168e-6
0.200, -1.649e-6
0.260, -7.800e-7
0.320, -4.972e-7
0.380, -2.211e-7
0.440, 2.355e-7
0.500, 1.324e-6
0.560, 3.576e-6
0.620, 6.851e-6
0.680, 9.897e-6
0.740, 1.174e-5
0.800, 1.162e-5
0.860, 8.948e-6
0.920, 5.456e-6
0.980, 3.072e-6
1.040, 1.888e-6
1.100, 1.475e-6
1.040, 5.122e-7
0.980, 1.716e-7
0.920, -2.327e-7
0.860, -9.126e-7
0.800, -1.890e-6
0.740, -3.300e-6
0.680, -5.137e-6
0.620, -7.291e-6
0.560, -9.397e-6
0.500, -1.116e-5
0.440, -1.061e-5
0.380, -5.887e-6
0.320, -3.278e-6
0.260, -2.174e-6
0.200, -1.664e-6
0.260, -7.874e-7
0.320, -5.055e-7
0.380, -2.346e-7
0.440, 2.121e-7
0.500, 1.279e-6
0.560, 3.492e-6
0.620, 6.709e-6
0.680, 9.667e-6
0.740, 1.142e-5
0.800, 1.125e-5
0.860, 8.656e-6
0.920, 5.363e-6
0.980, 3.077e-6
1.040, 1.908e-6
1.100, 1.493e-6
1.040, 5.195e-7
0.980, 1.783e-7
0.920, -2.200e-7
0.860, -8.848e-7
0.800, -1.837e-6
0.740, -3.215e-6
0.680, -5.017e-6
0.620, -7.139e-6
0.560, -9.202e-6
0.500, -1.092e-5
0.440, -1.024e-5
0.380, -5.727e-6
0.320, -3.247e-6
0.260, -2.175e-6
0.200, -1.675e-6
0.260, -7.921e-7
0.320, -5.117e-7
0.380, -2.461e-7
0.440, 1.917e-7
0.500, 1.238e-6
0.560, 3.414e-6
0.620, 6.577e-6
0.680, 9.453e-6
0.740, 1.114e-5
0.800, 1.091e-5
0.860, 8.381e-6
0.920, 5.266e-6
0.980, 3.074e-6
1.040, 1.925e-6
1.100, 1.506e-6
1.040, 5.249e-7
0.980, 1.831e-7
0.920, -2.101e-7
0.860, -8.594e-7
0.800, -1.791e-6
0.740, -3.140e-6
0.680, -4.909e-6
0.620, -7.001e-6
0.560, -9.024e-6
0.500, -1.070e-5
0.440, -9.907e-6
0.380, -5.577e-6
0.320, -3.212e-6
0.260, -2.170e-6
0.200, -1.680e-6
0.260, -7.943e-7
0.320, -5.155e-7
0.380, -2.548e-7
0.440, 1.744e-7
0.500, 1.203e-6
0.560, 3.345e-6
0.620, 6.457e-6
0.680, 9.259e-6
0.740, 1.087e-5
0.800, 1.060e-5
0.860, 8.134e-6
0.920, 5.170e-6
0.980, 3.062e-6
1.040, 1.935e-6
1.100, 1.517e-6
1.040, 5.289e-7
0.980, 1.874e-7
0.920, -2.011e-7
0.860, -8.390e-7
0.800, -1.751e-6
0.740, -3.074e-6
0.680, -4.811e-6
0.620, -6.876e-6
0.560, -8.862e-6
0.500, -1.049e-5
0.440, -9.603e-6
0.380, -5.443e-6
0.320, -3.175e-6
0.260, -2.161e-6
0.200, -1.681e-6
0.260, -7.937e-7
0.320, -5.170e-7
0.380, -2.613e-7
0.440, 1.598e-7
0.500, 1.170e-6
0.560, 3.280e-6
0.620, 6.344e-6
0.680, 9.080e-6
0.740, 1.064e-5
0.800, 1.032e-5
0.860, 7.908e-6
0.920, 5.077e-6
0.980, 3.048e-6
1.040, 1.943e-6
1.100, 1.524e-6
1.040, 5.322e-7
0.980, 1.908e-7
0.920, -1.933e-7
0.860, -8.206e-7
0.800, -1.715e-6
0.740, -3.015e-6
0.680, -4.723e-6
0.620, -6.763e-6
0.560, -8.712e-6
0.500, -1.030e-5
0.440, -9.327e-6
0.380, -5.319e-6
0.320, -3.138e-6
0.260, -2.149e-6
0.200, -1.678e-6
0.260, -7.914e-7
0.320, -5.166e-7
0.380, -2.653e-7
0.440, 1.475e-7
0.500, 1.142e-6
0.560, 3.222e-6
0.620, 6.241e-6
0.680, 8.917e-6
0.740, 1.042e-5
0.800, 1.006e-5
0.860, 7.700e-6
0.920, 4.989e-6
0.980, 3.031e-6
1.040, 1.948e-6
1.100, 1.531e-6
1.040, 5.354e-7
0.980, 1.943e-7
0.920, -1.860e-7
0.860, -8.031e-7
0.800, -1.681e-6
0.740, -2.960e-6
0.680, -4.642e-6
0.620, -6.656e-6
0.560, -8.571e-6
0.500, -1.012e-5
0.440, -9.068e-6
0.380, -5.201e-6
0.320, -3.099e-6
0.260, -2.134e-6
0.200, -1.673e-6
0.260, -7.871e-7
0.320, -5.149e-7
0.380, -2.677e-7
0.440, 1.376e-7
0.500, 1.115e-6
0.560, 3.166e-6
0.620, 6.140e-6
0.680, 8.757e-6
0.740, 1.020e-5
0.800, 9.815e-6
0.860, 7.501e-6
0.920, 4.903e-6
0.980, 3.015e-6
1.040, 1.955e-6
1.100, 1.540e-6
1.040, 5.401e-7
0.980, 1.979e-7
0.920, -1.780e-7
0.860, -7.849e-7
0.800, -1.645e-6
0.740, -2.903e-6
0.680, -4.557e-6
0.620, -6.546e-6
0.560, -8.425e-6
0.500, -9.929e-6
0.440, -8.811e-6
0.380, -5.087e-6
0.320, -3.062e-6
0.260, -2.121e-6
0.200, -1.669e-6
0.260, -7.836e-7
0.320, -5.134e-7
0.380, -2.700e-7
0.440, 1.281e-7
0.500, 1.090e-6
0.560, 3.111e-6
0.620, 6.041e-6
0.680, 8.595e-6
0.740, 9.987e-6
0.800, 9.563e-6
0.860, 7.302e-6
0.920, 4.815e-6
0.980, 2.997e-6
1.040, 1.961e-6
1.100, 1.549e-6
1.040, 5.448e-7
0.980, 2.021e-7
0.920, -1.696e-7
0.860, -7.659e-7
0.800, -1.610e-6
0.740, -2.845e-6
0.680, -4.472e-6
0.620, -6.434e-6
0.560, -8.278e-6
0.500, -9.742e-6
0.440, -8.558e-6
0.380, -4.975e-6
0.320, -3.024e-6
0.260, -2.107e-6
0.200, -1.664e-6
0.260, -7.792e-7
0.320, -5.114e-7
0.380, -2.718e-7
0.440, 1.195e-7
0.500, 1.066e-6
0.560, 3.056e-6
0.620, 5.943e-6
0.680, 8.435e-6
0.740, 9.773e-6
0.800, 9.313e-6
0.860, 7.107e-6
0.920, 4.726e-6
0.980, 2.975e-6
1.040, 1.966e-6
1.100, 1.558e-6
1.040, 5.491e-7
0.980, 2.069e-7
0.920, -1.614e-7
0.860, -7.471e-7
0.800, -1.575e-6
0.740, -2.788e-6
0.680, -4.390e-6
0.620, -6.321e-6
0.560, -8.132e-6
0.500, -9.556e-6
0.440, -8.314e-6
0.380, -4.866e-6
0.320, -2.988e-6
0.260, -2.094e-6
0.200, -1.660e-6
0.260, -7.749e-7
0.320, -5.092e-7
0.380, -2.731e-7
0.440, 1.113e-7
0.500, 1.042e-6
0.560, 3.003e-6
0.620, 5.846e-6
0.680, 8.277e-6
0.740, 9.561e-6
0.800, 9.068e-6
0.860, 6.916e-6
0.920, 4.637e-6
0.980, 2.952e-6
1.040, 1.969e-6
1.100, 1.566e-6
1.040, 5.542e-7
0.980, 2.111e-7
0.920, -1.528e-7
0.860, -7.282e-7
0.800, -1.540e-6
0.740, -2.731e-6
0.680, -4.306e-6
0.620, -6.212e-6
0.560, -7.988e-6
0.500, -9.370e-6
0.440, -8.076e-6
0.380, -4.758e-6
0.320, -2.951e-6
0.260, -2.080e-6
0.200, -1.655e-6
0.260, -7.708e-7
0.320, -5.065e-7
0.380, -2.740e-7
0.440, 1.033e-7
0.500, 1.019e-6
0.560, 2.951e-6
0.620, 5.751e-6
0.680, 8.124e-6
0.740, 9.352e-6
0.800, 8.830e-6
0.860, 6.730e-6
0.920, 4.546e-6
0.980, 2.926e-6
1.040, 1.971e-6
1.100, 1.575e-6
1.040, 5.590e-7
0.980, 2.161e-7
0.920, -1.451e-7
0.860, -7.110e-7
0.800, -1.507e-6
0.740, -2.677e-6
0.680, -4.227e-6
0.620, -6.105e-6
0.560, -7.847e-6
0.500, -9.191e-6
0.440, -7.850e-6
0.380, -4.658e-6
0.320, -2.914e-6
0.260, -2.065e-6
0.200, -1.650e-6
0.260, -7.662e-7
0.320, -5.038e-7
0.380, -2.744e-7
0.440, 9.652e-8
0.500, 9.975e-7
0.560, 2.903e-6
0.620, 5.662e-6
0.680, 7.979e-6
0.740, 9.157e-6
0.800, 8.606e-6
0.860, 6.554e-6
0.920, 4.457e-6
0.980, 2.897e-6
1.040, 1.969e-6
1.100, 1.580e-6
1.040, 5.626e-7
0.980, 2.196e-7
0.920, -1.375e-7
0.860, -6.942e-7
0.800, -1.477e-6
0.740, -2.627e-6
0.680, -4.151e-6
0.620, -6.004e-6
0.560, -7.715e-6
0.500, -9.021e-6
0.440, -7.641e-6
0.380, -4.563e-6
0.320, -2.878e-6
0.260, -2.050e-6
0.200, -1.643e-6
0.260, -7.610e-7
0.320, -5.006e-7
0.380, -2.746e-7
0.440, 9.066e-8
0.500, 9.775e-7
0.560, 2.858e-6
0.620, 5.578e-6
0.680, 7.842e-6
0.740, 8.974e-6
0.800, 8.396e-6
0.860, 6.389e-6
0.920, 4.370e-6
0.980, 2.866e-6
1.040, 1.966e-6
1.100, 1.585e-6
1.040, 5.657e-7
0.980, 2.230e-7
0.920, -1.306e-7
0.860, -6.785e-7
0.800, -1.447e-6
0.740, -2.578e-6
0.680, -4.079e-6
0.620, -5.908e-6
0.560, -7.588e-6
0.500, -8.858e-6
0.440, -7.448e-6
0.380, -4.472e-6
0.320, -2.842e-6
0.260, -2.035e-6
0.200, -1.637e-6
0.260, -7.556e-7
0.320, -4.969e-7
0.380, -2.742e-7
0.440, 8.526e-8
0.500, 9.593e-7
0.560, 2.814e-6
0.620, 5.496e-6
0.680, 7.708e-6
0.740, 8.796e-6
0.800, 8.196e-6
0.860, 6.231e-6
0.920, 4.286e-6
0.980, 2.836e-6
1.040, 1.962e-6
1.100, 1.589e-6
1.040, 5.690e-7
0.980, 2.264e-7
0.920, -1.239e-7
0.860, -6.636e-7
0.800, -1.419e-6
0.740, -2.531e-6
0.680, -4.008e-6
0.620, -5.813e-6
0.560, -7.464e-6
0.500, -8.694e-6
0.440, -7.253e-6
0.380, -4.383e-6
0.320, -2.805e-6
0.260, -2.018e-6
0.200, -1.628e-6
0.260, -7.492e-7
0.320, -4.926e-7
0.380, -2.731e-7
0.440, 8.015e-8
0.500, 9.394e-7
0.560, 2.768e-6
0.620, 5.409e-6
0.680, 7.572e-6
0.740, 8.616e-6
0.800, 7.997e-6
0.860, 6.078e-6
0.920, 4.207e-6
0.980, 2.806e-6
1.040, 1.958e-6
1.100, 1.593e-6
1.040, 5.719e-7
0.980, 2.295e-7
0.920, -1.172e-7
0.860, -6.484e-7
0.800, -1.390e-6
0.740, -2.484e-6
0.680, -3.937e-6
0.620, -5.716e-6
0.560, -7.336e-6
0.500, -8.529e-6
0.440, -7.060e-6
0.380, -4.294e-6
0.320, -2.768e-6
0.260, -2.001e-6
0.200, -1.620e-6
0.260, -7.426e-7
0.320, -4.879e-7
0.380, -2.716e-7
0.440, 7.520e-8
0.500, 9.201e-7
0.560, 2.722e-6
0.620, 5.323e-6
0.680, 7.433e-6
0.740, 8.434e-6
0.800, 7.795e-6
0.860, 5.928e-6
0.920, 4.129e-6
0.980, 2.778e-6
1.040, 1.954e-6
1.100, 1.596e-6
1.040, 5.753e-7
0.980, 2.332e-7
0.920, -1.101e-7
0.860, -6.323e-7
0.800, -1.360e-6
0.740, -2.433e-6
0.680, -3.864e-6
0.620, -5.617e-6
0.560, -7.206e-6
0.500, -8.360e-6
0.440, -6.869e-6
0.380, -4.206e-6
0.320, -2.732e-6
0.260, -1.985e-6
0.200, -1.612e-6
0.260, -7.359e-7
0.320, -4.832e-7
0.380, -2.701e-7
0.440, 7.074e-8
0.500, 9.014e-7
0.560, 2.676e-6
0.620, 5.236e-6
0.680, 7.292e-6
0.740, 8.247e-6
0.800, 7.593e-6
0.860, 5.777e-6
0.920, 4.049e-6
0.980, 2.748e-6
1.040, 1.950e-6
1.100, 1.601e-6
1.040, 5.783e-7
0.980, 2.366e-7
0.920, -1.027e-7
0.860, -6.157e-7
0.800, -1.330e-6
0.740, -2.384e-6
0.680, -3.790e-6
0.620, -5.515e-6
0.560, -7.073e-6
0.500, -8.189e-6
0.440, -6.679e-6
0.380, -4.119e-6
0.320, -2.696e-6
0.260, -1.969e-6
0.200, -1.605e-6
0.260, -7.294e-7
0.320, -4.788e-7
0.380, -2.690e-7
0.440, 6.594e-8
0.500, 8.810e-7
0.560, 2.628e-6
0.620, 5.146e-6
0.680, 7.149e-6
0.740, 8.063e-6
0.800, 7.394e-6
0.860, 5.631e-6
0.920, 3.971e-6
0.980, 2.717e-6
1.040, 1.944e-6
1.100, 1.604e-6
1.040, 5.814e-7
0.980, 2.401e-7
0.920, -9.565e-8
0.860, -5.995e-7
0.800, -1.300e-6
0.740, -2.334e-6
0.680, -3.717e-6
0.620, -5.416e-6
0.560, -6.942e-6
0.500, -8.020e-6
0.440, -6.496e-6
0.380, -4.033e-6
0.320, -2.661e-6
0.260, -1.953e-6
0.200, -1.597e-6
0.260, -7.234e-7
0.320, -4.741e-7
0.380, -2.673e-7
0.440, 6.169e-8
0.500, 8.624e-7
0.560, 2.582e-6
0.620, 5.060e-6
0.680, 7.010e-6
0.740, 7.882e-6
0.800, 7.200e-6
0.860, 5.486e-6
0.920, 3.892e-6
0.980, 2.685e-6
1.040, 1.937e-6
1.100, 1.607e-6
1.040, 5.839e-7
0.980, 2.436e-7
0.920, -8.859e-8
0.860, -5.839e-7
0.800, -1.271e-6
0.740, -2.285e-6
0.680, -3.645e-6
0.620, -5.316e-6
0.560, -6.813e-6
0.500, -7.850e-6
0.440, -6.315e-6
0.380, -3.947e-6
0.320, -2.624e-6
0.260, -1.935e-6
0.200, -1.588e-6
0.260, -7.160e-7
0.320, -4.686e-7
0.380, -2.649e-7
0.440, 5.782e-8
0.500, 8.436e-7
0.560, 2.536e-6
0.620, 4.972e-6
0.680, 6.866e-6
0.740, 7.695e-6
0.800, 7.002e-6
0.860, 5.341e-6
0.920, 3.814e-6
0.980, 2.654e-6
1.040, 1.932e-6
1.100, 1.611e-6
1.040, 5.876e-7
0.980, 2.474e-7
0.920, -8.031e-8
0.860, -5.663e-7
0.800, -1.241e-6
0.740, -2.234e-6
0.680, -3.568e-6
0.620, -5.210e-6
0.560, -6.674e-6
0.500, -7.670e-6
0.440, -6.128e-6
0.380, -3.859e-6
0.320, -2.587e-6
0.260, -1.918e-6
0.200, -1.579e-6
0.260, -7.090e-7
0.320, -4.638e-7
0.380, -2.632e-7
0.440, 5.298e-8
0.500, 8.230e-7
0.560, 2.485e-6
0.620, 4.876e-6
0.680, 6.714e-6
0.740, 7.499e-6
0.800, 6.801e-6
0.860, 5.197e-6
0.920, 3.735e-6
0.980, 2.623e-6
1.040, 1.925e-6
1.100, 1.614e-6
1.040, 5.903e-7
0.980, 2.511e-7
0.920, -7.223e-8
0.860, -5.487e-7
0.800, -1.209e-6
0.740, -2.181e-6
0.680, -3.489e-6
0.620, -5.101e-6
0.560, -6.534e-6
0.500, -7.490e-6
0.440, -5.945e-6
0.380, -3.774e-6
0.320, -2.551e-6
0.260, -1.902e-6
0.200, -1.573e-6
0.260, -7.029e-7
0.320, -4.594e-7
0.380, -2.614e-7
0.440, 4.874e-8
0.500, 8.031e-7
0.560, 2.435e-6
0.620, 4.781e-6
0.680, 6.564e-6
0.740, 7.304e-6
0.800, 6.601e-6
0.860, 5.053e-6
0.920, 3.656e-6
0.980, 2.589e-6
1.040, 1.919e-6
1.100, 1.619e-6
1.040, 5.939e-7
0.980, 2.551e-7
0.920, -6.405e-8
0.860, -5.309e-7
0.800, -1.176e-6
0.740, -2.126e-6
0.680, -3.408e-6
0.620, -4.989e-6
0.560, -6.385e-6
0.500, -7.297e-6
0.440, -5.752e-6
0.380, -3.683e-6
0.320, -2.512e-6
0.260, -1.884e-6
0.200, -1.564e-6
0.260, -6.954e-7
0.320, -4.540e-7
0.380, -2.594e-7
0.440, 4.404e-8
0.500, 7.807e-7
0.560, 2.381e-6
0.620, 4.677e-6
0.680, 6.400e-6
0.740, 7.096e-6
0.800, 6.390e-6
0.860, 4.908e-6
0.920, 3.576e-6
0.980, 2.554e-6
1.040, 1.910e-6
1.100, 1.621e-6
1.040, 5.967e-7
0.980, 2.588e-7
0.920, -5.632e-8
0.860, -5.129e-7
0.800, -1.142e-6
0.740, -2.070e-6
0.680, -3.325e-6
0.620, -4.873e-6
0.560, -6.236e-6
0.500, -7.103e-6
0.440, -5.567e-6
0.380, -3.597e-6
0.320, -2.475e-6
0.260, -1.869e-6
0.200, -1.558e-6
0.260, -6.899e-7
0.320, -4.499e-7
0.380, -2.582e-7
0.440, 3.908e-8
0.500, 7.602e-7
0.560, 2.331e-6
0.620, 4.579e-6
0.680, 6.247e-6
0.740, 6.897e-6
0.800, 6.190e-6
0.860, 4.764e-6
0.920, 3.494e-6
0.980, 2.517e-6
1.040, 1.898e-6
1.100, 1.621e-6
1.040, 5.981e-7
0.980, 2.616e-7
0.920, -4.948e-8
0.860, -4.963e-7
0.800, -1.111e-6
0.740, -2.018e-6
0.680, -3.247e-6
0.620, -4.764e-6
0.560, -6.096e-6
0.500, -6.923e-6
0.440, -5.398e-6
0.380, -3.514e-6
0.320, -2.437e-6
0.260, -1.851e-6
0.200, -1.551e-6
0.260, -6.839e-7
0.320, -4.454e-7
0.380, -2.563e-7
0.440, 3.478e-8
0.500, 7.410e-7
0.560, 2.283e-6
0.620, 4.487e-6
0.680, 6.101e-6
0.740, 6.713e-6
0.800, 6.006e-6
0.860, 4.629e-6
0.920, 3.416e-6
0.980, 2.478e-6
1.040, 1.886e-6
1.100, 1.619e-6
1.040, 5.985e-7
0.980, 2.634e-7
0.920, -4.357e-8
0.860, -4.810e-7
0.800, -1.082e-6
0.740, -1.969e-6
0.680, -3.171e-6
0.620, -4.658e-6
0.560, -5.961e-6
0.500, -6.744e-6
0.440, -5.232e-6
0.380, -3.431e-6
0.320, -2.397e-6
0.260, -1.831e-6
0.200, -1.540e-6
0.260, -6.759e-7
0.320, -4.395e-7
0.380, -2.533e-7
0.440, 3.167e-8
0.500, 7.217e-7
0.560, 2.233e-6
0.620, 4.391e-6
0.680, 5.954e-6
0.740, 6.529e-6
0.800, 5.823e-6
0.860, 4.499e-6
0.920, 3.341e-6
0.980, 2.443e-6
1.040, 1.874e-6
1.100, 1.619e-6
1.040, 5.994e-7
0.980, 2.657e-7
0.920, -3.668e-8
0.860, -4.650e-7
0.800, -1.051e-6
0.740, -1.918e-6
0.680, -3.095e-6
0.620, -4.552e-6
0.560, -5.822e-6
0.500, -6.565e-6
0.440, -5.070e-6
0.380, -3.352e-6
0.320, -2.361e-6
0.260, -1.814e-6
0.200, -1.532e-6
0.260, -6.691e-7
0.320, -4.344e-7
0.380, -2.509e-7
0.440, 2.812e-8
0.500, 7.023e-7
0.560, 2.184e-6
0.620, 4.298e-6
0.680, 5.807e-6
0.740, 6.345e-6
0.800, 5.643e-6
0.860, 4.371e-6
0.920, 3.265e-6
0.980, 2.405e-6
1.040, 1.860e-6
1.100, 1.616e-6
1.040, 5.989e-7
0.980, 2.672e-7
0.920, -3.124e-8
0.860, -4.503e-7
0.800, -1.023e-6
0.740, -1.868e-6
0.680, -3.022e-6
0.620, -4.448e-6
0.560, -5.687e-6
0.500, -6.387e-6
0.440, -4.913e-6
0.380, -3.274e-6
0.320, -2.322e-6
0.260, -1.794e-6
0.200, -1.522e-6
0.260, -6.614e-7
0.320, -4.288e-7
0.380, -2.483e-7
0.440, 2.460e-8
0.500, 6.831e-7
0.560, 2.136e-6
0.620, 4.205e-6
0.680, 5.664e-6
0.740, 6.164e-6
0.800, 5.469e-6
0.860, 4.246e-6
0.920, 3.191e-6
0.980, 2.366e-6
1.040, 1.844e-6
1.100, 1.611e-6
1.040, 5.977e-7
0.980, 2.682e-7
0.920, -2.606e-8
0.860, -4.360e-7
0.800, -9.949e-7
0.740, -1.822e-6
0.680, -2.950e-6
0.620, -4.348e-6
0.560, -5.555e-6
0.500, -6.216e-6
0.440, -4.762e-6
0.380, -3.196e-6
0.320, -2.285e-6
0.260, -1.775e-6
0.200, -1.512e-6
0.260, -6.543e-7
0.320, -4.231e-7
0.380, -2.456e-7
0.440, 2.149e-8
0.500, 6.651e-7
0.560, 2.089e-6
0.620, 4.114e-6
0.680, 5.525e-6
0.740, 5.993e-6
0.800, 5.303e-6
0.860, 4.127e-6
0.920, 3.118e-6
0.980, 2.329e-6
1.040, 1.829e-6
1.100, 1.607e-6
1.040, 5.968e-7
0.980, 2.693e-7
0.920, -2.113e-8
0.860, -4.218e-7
0.800, -9.678e-7
0.740, -1.775e-6
0.680, -2.880e-6
0.620, -4.247e-6
0.560, -5.424e-6
0.500, -6.045e-6
0.440, -4.616e-6
0.380, -3.120e-6
0.320, -2.247e-6
0.260, -1.754e-6
0.200, -1.501e-6
0.260, -6.454e-7
0.320, -4.164e-7
0.380, -2.419e-7
0.440, 1.922e-8
0.500, 6.470e-7
0.560, 2.042e-6
0.620, 4.022e-6
0.680, 5.384e-6
0.740, 5.820e-6
0.800, 5.140e-6
0.860, 4.010e-6
0.920, 3.046e-6
0.980, 2.293e-6
1.040, 1.814e-6
1.100, 1.603e-6
1.040, 5.957e-7
0.980, 2.698e-7
0.920, -1.603e-8
0.860, -4.084e-7
0.800, -9.412e-7
0.740, -1.730e-6
0.680, -2.811e-6
0.620, -4.148e-6
0.560, -5.297e-6
0.500, -5.881e-6
0.440, -4.478e-6
0.380, -3.049e-6
0.320, -2.211e-6
0.260, -1.736e-6
0.200, -1.492e-6
0.260, -6.384e-7
0.320, -4.113e-7
0.380, -2.390e-7
0.440, 1.664e-8
0.500, 6.311e-7
0.560, 1.999e-6
0.620, 3.937e-6
0.680, 5.254e-6
0.740, 5.659e-6
0.800, 4.987e-6
0.860, 3.898e-6
0.920, 2.977e-6
0.980, 2.254e-6
1.040, 1.796e-6
1.100, 1.598e-6
1.040, 5.934e-7
0.980, 2.701e-7
0.920, -1.178e-8
0.860, -3.961e-7
0.800, -9.164e-7
0.740, -1.687e-6
0.680, -2.745e-6
0.620, -4.055e-6
0.560, -5.177e-6
0.500, -5.728e-6
0.440, -4.354e-6
0.380, -2.982e-6
0.320, -2.176e-6
0.260, -1.718e-6
0.200, -1.483e-6
0.260, -6.310e-7
0.320, -4.057e-7
0.380, -2.358e-7
0.440, 1.506e-8
0.500, 6.165e-7
0.560, 1.960e-6
0.620, 3.857e-6
0.680, 5.132e-6
0.740, 5.507e-6
0.800, 4.844e-6
0.860, 3.792e-6
0.920, 2.910e-6
0.980, 2.216e-6
1.040, 1.778e-6
1.100, 1.591e-6
1.040, 5.913e-7
0.980, 2.698e-7
0.920, -7.901e-9
0.860, -3.844e-7
0.800, -8.931e-7
0.740, -1.645e-6
0.680, -2.682e-6
0.620, -3.964e-6
0.560, -5.061e-6
0.500, -5.579e-6
0.440, -4.234e-6
0.380, -2.918e-6
0.320, -2.141e-6
0.260, -1.699e-6
0.200, -1.472e-6
0.260, -6.232e-7
0.320, -4.001e-7
0.380, -2.325e-7
0.440, 1.364e-8
0.500, 6.026e-7
0.560, 1.920e-6
0.620, 3.777e-6
0.680, 5.014e-6
0.740, 5.360e-6
0.800, 4.705e-6
0.860, 3.690e-6
0.920, 2.845e-6
0.980, 2.179e-6
1.040, 1.761e-6
1.100, 1.584e-6
1.040, 5.887e-7
0.980, 2.699e-7
0.920, -4.374e-9
0.860, -3.729e-7
0.800, -8.693e-7
0.740, -1.605e-6
0.680, -2.622e-6
0.620, -3.876e-6
0.560, -4.948e-6
0.500, -5.433e-6
0.440, -4.116e-6
0.380, -2.854e-6
0.320, -2.107e-6
0.260, -1.679e-6
0.200, -1.462e-6
0.260, -6.155e-7
0.320, -3.943e-7
0.380, -2.289e-7
0.440, 1.197e-8
0.500, 5.881e-7
0.560, 1.883e-6
0.620, 3.698e-6
0.680, 4.895e-6
0.740, 5.216e-6
0.800, 4.571e-6
0.860, 3.595e-6
0.920, 2.783e-6
0.980, 2.143e-6
1.040, 1.743e-6
1.100, 1.576e-6
1.040, 5.857e-7
0.980, 2.691e-7
0.920, -1.145e-9
0.860, -3.621e-7
0.800, -8.476e-7
0.740, -1.567e-6
0.680, -2.563e-6
0.620, -3.791e-6
0.560, -4.838e-6
0.500, -5.291e-6
0.440, -4.002e-6
0.380, -2.793e-6
0.320, -2.073e-6
0.260, -1.660e-6
0.200, -1.451e-6
0.260, -6.077e-7
0.320, -3.880e-7
0.380, -2.252e-7
0.440, 1.083e-8
0.500, 5.747e-7
0.560, 1.844e-6
0.620, 3.622e-6
0.680, 4.781e-6
0.740, 5.078e-6
0.800, 4.442e-6
0.860, 3.500e-6
0.920, 2.721e-6
0.980, 2.108e-6
1.040, 1.725e-6
1.100, 1.569e-6
1.040, 5.833e-7
0.980, 2.689e-7
0.920, 2.431e-9
0.860, -3.514e-7
0.800, -8.260e-7
0.740, -1.529e-6
0.680, -2.504e-6
0.620, -3.706e-6
0.560, -4.727e-6
0.500, -5.149e-6
0.440, -3.889e-6
0.380, -2.730e-6
0.320, -2.039e-6
0.260, -1.639e-6
0.200, -1.438e-6
0.260, -5.981e-7
0.320, -3.806e-7
0.380, -2.208e-7
0.440, 9.960e-9
0.500, 5.604e-7
0.560, 1.803e-6
0.620, 3.540e-6
0.680, 4.660e-6
0.740, 4.935e-6
0.800, 4.312e-6
0.860, 3.408e-6
0.920, 2.662e-6
0.980, 2.075e-6
1.040, 1.709e-6
1.100, 1.562e-6
1.040, 5.809e-7
0.980, 2.689e-7
0.920, 6.404e-9
0.860, -3.399e-7
0.800, -8.029e-7
0.740, -1.489e-6
0.680, -2.442e-6
0.620, -3.617e-6
0.560, -4.612e-6
0.500, -5.002e-6
0.440, -3.775e-6
0.380, -2.668e-6
0.320, -2.005e-6
0.260, -1.620e-6
0.200, -1.427e-6
0.260, -5.908e-7
0.320, -3.747e-7
0.380, -2.171e-7
0.440, 8.652e-9
0.500, 5.458e-7
0.560, 1.763e-6
0.620, 3.459e-6
0.680, 4.539e-6
0.740, 4.794e-6
0.800, 4.183e-6
0.860, 3.314e-6
0.920, 2.602e-6
0.980, 2.042e-6
1.040, 1.692e-6
1.100, 1.555e-6
1.040, 5.780e-7
0.980, 2.686e-7
0.920, 9.683e-9
0.860, -3.290e-7
0.800, -7.810e-7
0.740, -1.451e-6
0.680, -2.382e-6
0.620, -3.529e-6
0.560, -4.500e-6
0.500, -4.861e-6
0.440, -3.667e-6
0.380, -2.608e-6
0.320, -1.972e-6
0.260, -1.601e-6
0.200, -1.416e-6
0.260, -5.823e-7
0.320, -3.682e-7
0.380, -2.132e-7
0.440, 7.692e-9
0.500, 5.321e-7
0.560, 1.723e-6
0.620, 3.379e-6
0.680, 4.420e-6
0.740, 4.653e-6
0.800, 4.058e-6
0.860, 3.225e-6
0.920, 2.545e-6
0.980, 2.008e-6
1.040, 1.675e-6
1.100, 1.548e-6
1.040, 5.748e-7
0.980, 2.676e-7
0.920, 1.313e-8
0.860, -3.179e-7
0.800, -7.582e-7
0.740, -1.411e-6
0.680, -2.320e-6
0.620, -3.439e-6
0.560, -4.386e-6
0.500, -4.715e-6
0.440, -3.558e-6
0.380, -2.547e-6
0.320, -1.938e-6
0.260, -1.581e-6
0.202, -1.422e-6