File: Data/2022-03-23 MQ HCF/CV-Carbon-FeHCF-3.txt
Mar. 22, 2022   15:32:52
Cyclic Voltammetry
File: d:\mq\20220322-pba stability\cv-carbon-fehcf-3.txt
Data Source:  Experiment
Instrument Model:  CHI840D
Header:
Note:

Init E (V) = -0.3
High E (V) = 0.5
Low E (V) = -0.3
Init P/N = P
Scan Rate (V/s) = 0.05
Segment = 100
Sample Interval (V) = 0.001
Quiet Time (sec) = 2
Sensitivity (A/V) = 1e-5

Segment 1:

Segment 2:

Segment 3:

Segment 4:

Segment 5:

Segment 6:

Segment 7:

Segment 8:

Segment 9:

Segment 10:

Segment 11:

Segment 12:

Segment 13:

Segment 14:

Segment 15:

Segment 16:

Segment 17:

Segment 18:

Segment 19:

Segment 20:

Segment 21:

Segment 22:

Segment 23:

Segment 24:

Segment 25:

Segment 26:

Segment 27:

Segment 28:

Segment 29:

Segment 30:

Segment 31:

Segment 32:

Segment 33:

Segment 34:

Segment 35:

Segment 36:

Segment 37:

Segment 38:

Segment 39:

Segment 40:

Segment 41:

Segment 42:

Segment 43:

Segment 44:

Segment 45:

Segment 46:

Segment 47:

Segment 48:

Segment 49:

Segment 50:

Segment 51:

Segment 52:

Segment 53:

Segment 54:

Segment 55:

Segment 56:

Segment 57:

Segment 58:

Segment 59:

Segment 60:

Segment 61:

Segment 62:

Segment 63:

Segment 64:

Segment 65:

Segment 66:

Segment 67:

Segment 68:

Segment 69:

Segment 70:

Segment 71:

Segment 72:

Segment 73:

Segment 74:

Segment 75:

Segment 76:

Segment 77:

Segment 78:

Segment 79:

Segment 80:

Segment 81:

Segment 82:

Segment 83:

Segment 84:

Segment 85:

Segment 86:

Segment 87:

Segment 88:

Segment 89:

Segment 90:

Segment 91:

Segment 92:

Segment 93:

Segment 94:

Segment 95:

Segment 96:

Segment 97:

Segment 98:

Segment 99:

Segment 100:

Potential/V, Current/A

-0.300, -6.606e-6
-0.246, -3.308e-6
-0.192, -1.944e-6
-0.138, -4.993e-7
-0.084, 2.240e-6
-0.030, 6.529e-6
0.024, 1.113e-5
0.078, 1.456e-5
0.132, 1.674e-5
0.186, 1.808e-5
0.240, 1.774e-5
0.294, 1.312e-5
0.348, 5.529e-6
0.402, 2.312e-6
0.456, 1.256e-6
0.490, 6.545e-7
0.436, 2.658e-7
0.382, 5.832e-8
0.328, -3.706e-7
0.274, -1.734e-6
0.220, -4.809e-6
0.166, -9.301e-6
0.112, -1.393e-5
0.058, -1.725e-5
0.004, -1.833e-5
-0.050, -1.706e-5
-0.104, -1.373e-5
-0.158, -8.413e-6
-0.212, -4.847e-6
-0.266, -3.450e-6
-0.280, -2.380e-6
-0.226, -1.555e-6
-0.172, -9.096e-7
-0.118, 3.669e-7
-0.064, 3.280e-6
-0.010, 7.742e-6
0.044, 1.229e-5
0.098, 1.557e-5
0.152, 1.751e-5
0.206, 1.828e-5
0.260, 1.639e-5
0.314, 9.634e-6
0.368, 4.035e-6
0.422, 2.022e-6
0.476, 1.265e-6
0.470, 5.718e-7
0.416, 2.740e-7
0.362, 5.621e-8
0.308, -4.593e-7
0.254, -2.089e-6
0.200, -5.554e-6
0.146, -1.023e-5
0.092, -1.465e-5
0.038, -1.754e-5
-0.016, -1.809e-5
-0.070, -1.621e-5
-0.124, -1.194e-5
-0.178, -6.853e-6
-0.232, -4.246e-6
-0.286, -3.228e-6
-0.260, -1.966e-6
-0.206, -1.290e-6
-0.152, -5.918e-7
-0.098, 9.974e-7
-0.044, 4.319e-6
0.010, 8.882e-6
0.064, 1.315e-5
0.118, 1.609e-5
0.172, 1.772e-5
0.226, 1.771e-5
0.280, 1.406e-5
0.334, 7.032e-6
0.388, 3.284e-6
0.442, 1.860e-6
0.496, 1.279e-6
0.450, 5.174e-7
0.396, 2.606e-7
0.342, -5.900e-10
0.288, -7.197e-7
0.234, -2.810e-6
0.180, -6.680e-6
0.126, -1.134e-5
0.072, -1.535e-5
0.018, -1.758e-5
-0.036, -1.733e-5
-0.090, -1.469e-5
-0.144, -9.815e-6
-0.198, -5.750e-6
-0.252, -3.862e-6
-0.294, -2.799e-6
-0.240, -1.693e-6
-0.186, -1.081e-6
-0.132, -2.450e-7
-0.078, 1.748e-6
-0.024, 5.426e-6
0.030, 9.943e-6
0.084, 1.385e-5
0.138, 1.641e-5
0.192, 1.761e-5
0.246, 1.655e-5
0.300, 1.128e-5
0.354, 5.432e-6
0.408, 2.847e-6
0.462, 1.771e-6
0.484, 9.607e-7
0.430, 4.809e-7
0.376, 2.359e-7
0.322, -1.046e-7
0.268, -1.122e-6
0.214, -3.723e-6
0.160, -7.880e-6
0.106, -1.236e-5
0.052, -1.584e-5
-0.002, -1.728e-5
-0.056, -1.622e-5
-0.110, -1.281e-5
-0.164, -8.047e-6
-0.218, -5.018e-6
-0.272, -3.626e-6
-0.274, -2.319e-6
-0.220, -1.474e-6
-0.166, -8.666e-7
-0.112, 1.837e-7
-0.058, 2.605e-6
-0.004, 6.524e-6
0.050, 1.085e-5
0.104, 1.436e-5
0.158, 1.654e-5
0.212, 1.713e-5
0.266, 1.476e-5
0.320, 8.798e-6
0.374, 4.475e-6
0.428, 2.587e-6
0.482, 1.734e-6
0.464, 8.344e-7
0.410, 4.538e-7
0.356, 1.978e-7
0.302, -2.702e-7
0.248, -1.672e-6
0.194, -4.752e-6
0.140, -9.030e-6
0.086, -1.319e-5
0.032, -1.601e-5
-0.022, -1.660e-5
-0.076, -1.479e-5
-0.130, -1.083e-5
-0.184, -6.782e-6
-0.238, -4.532e-6
-0.292, -3.505e-6
-0.254, -1.997e-6
-0.200, -1.284e-6
-0.146, -6.289e-7
-0.092, 7.097e-7
-0.038, 3.521e-6
0.016, 7.532e-6
0.070, 1.156e-5
0.124, 1.465e-5
0.178, 1.641e-5
0.232, 1.620e-5
0.286, 1.254e-5
0.340, 7.029e-6
0.394, 3.895e-6
0.448, 2.438e-6
0.498, 1.598e-6
0.444, 7.624e-7
0.390, 4.282e-7
0.336, 1.372e-7
0.282, -5.205e-7
0.228, -2.362e-6
0.174, -5.815e-6
0.120, -1.003e-5
0.066, -1.374e-5
0.012, -1.582e-5
-0.042, -1.559e-5
-0.096, -1.313e-5
-0.150, -9.094e-6
-0.204, -5.920e-6
-0.258, -4.219e-6
-0.288, -2.906e-6
-0.234, -1.749e-6
-0.180, -1.105e-6
-0.126, -3.445e-7
-0.072, 1.328e-6
-0.018, 4.433e-6
0.036, 8.383e-6
0.090, 1.206e-5
0.144, 1.473e-5
0.198, 1.596e-5
0.252, 1.479e-5
0.306, 1.031e-5
0.360, 5.879e-6
0.414, 3.537e-6
0.468, 2.362e-6
0.478, 1.303e-6
0.424, 7.132e-7
0.370, 3.965e-7
0.316, 4.086e-8
0.262, -8.748e-7
0.208, -3.157e-6
0.154, -6.825e-6
0.100, -1.083e-5
0.046, -1.396e-5
-0.008, -1.525e-5
-0.062, -1.431e-5
-0.116, -1.138e-5
-0.170, -7.758e-6
-0.224, -5.330e-6
-0.278, -4.026e-6
-0.268, -2.454e-6
-0.214, -1.538e-6
-0.160, -9.163e-7
-0.106, 2.907e-9
-0.052, 1.995e-6
0.002, 5.263e-6
0.056, 9.019e-6
0.110, 1.231e-5
0.164, 1.455e-5
0.218, 1.514e-5
0.272, 1.299e-5
0.326, 8.530e-6
0.380, 5.154e-6
0.434, 3.328e-6
0.488, 2.346e-6
0.458, 1.169e-6
0.404, 6.748e-7
0.350, 3.564e-7
0.296, -1.032e-7
0.242, -1.328e-6
0.188, -3.983e-6
0.134, -7.684e-6
0.080, -1.133e-5
0.026, -1.381e-5
-0.028, -1.434e-5
-0.082, -1.283e-5
-0.136, -9.752e-6
-0.190, -6.792e-6
-0.244, -4.921e-6
-0.298, -3.935e-6
-0.248, -2.121e-6
-0.194, -1.345e-6
-0.140, -7.060e-7
-0.086, 4.049e-7
-0.032, 2.651e-6
0.022, 5.926e-6
0.076, 9.397e-6
0.130, 1.228e-5
0.184, 1.404e-5
0.238, 1.391e-5
0.292, 1.109e-5
0.346, 7.276e-6
0.400, 4.702e-6
0.454, 3.220e-6
0.492, 2.056e-6
0.438, 1.084e-6
0.384, 6.414e-7
0.330, 3.016e-7
0.276, -3.018e-7
0.222, -1.855e-6
0.168, -4.750e-6
0.114, -8.318e-6
0.060, -1.149e-5
0.006, -1.326e-5
-0.048, -1.315e-5
-0.102, -1.127e-5
-0.156, -8.424e-6
-0.210, -6.109e-6
-0.264, -4.651e-6
-0.282, -3.097e-6
-0.228, -1.853e-6
-0.174, -1.162e-6
-0.120, -4.701e-7
-0.066, 8.451e-7
-0.012, 3.239e-6
0.042, 6.392e-6
0.096, 9.525e-6
0.150, 1.199e-5
0.204, 1.320e-5
0.258, 1.238e-5
0.312, 9.442e-6
0.366, 6.435e-6
0.420, 4.428e-6
0.474, 3.193e-6
0.472, 1.796e-6
0.418, 1.026e-6
0.364, 6.089e-7
0.310, 2.246e-7
0.256, -5.604e-7
0.202, -2.410e-6
0.148, -5.387e-6
0.094, -8.680e-6
0.040, -1.129e-5
-0.014, -1.240e-5
-0.068, -1.181e-5
-0.122, -9.797e-6
-0.176, -7.419e-6
-0.230, -5.622e-6
-0.284, -4.489e-6
-0.262, -2.619e-6
-0.208, -1.617e-6
-0.154, -9.761e-7
-0.100, -2.027e-7
-0.046, 1.280e-6
0.008, 3.700e-6
0.062, 6.622e-6
0.116, 9.373e-6
0.170, 1.139e-5
0.224, 1.205e-5
0.278, 1.076e-5
0.332, 8.180e-6
0.386, 5.872e-6
0.440, 4.270e-6
0.494, 3.219e-6
0.452, 1.635e-6
0.398, 9.734e-7
0.344, 5.652e-7
0.290, 1.150e-7
0.236, -8.702e-7
0.182, -2.928e-6
0.128, -5.832e-6
0.074, -8.742e-6
0.020, -1.075e-5
-0.034, -1.132e-5
-0.088, -1.042e-5
-0.142, -8.543e-6
-0.196, -6.663e-6
-0.250, -5.262e-6
-0.296, -4.045e-6
-0.242, -2.240e-6
-0.188, -1.397e-6
-0.134, -7.757e-7
-0.080, 8.543e-8
-0.026, 1.659e-6
0.028, 3.984e-6
0.082, 6.610e-6
0.136, 8.981e-6
0.190, 1.052e-5
0.244, 1.070e-5
0.298, 9.308e-6
0.352, 7.259e-6
0.406, 5.487e-6
0.460, 4.183e-6
0.486, 2.724e-6
0.432, 1.507e-6
0.378, 9.163e-7
0.324, 5.052e-7
0.270, -2.895e-8
0.216, -1.201e-6
0.162, -3.347e-6
0.108, -6.046e-6
0.054, -8.494e-6
0.000, -9.949e-6
-0.054, -1.012e-5
-0.108, -9.111e-6
-0.162, -7.532e-6
-0.216, -6.081e-6
-0.270, -4.995e-6
-0.276, -3.236e-6
-0.222, -1.916e-6
-0.168, -1.185e-6
-0.114, -5.655e-7
-0.060, 3.653e-7
-0.006, 1.938e-6
0.048, 4.081e-6
0.102, 6.388e-6
0.156, 8.334e-6
0.210, 9.457e-6
0.264, 9.341e-6
0.318, 8.129e-6
0.372, 6.582e-6
0.426, 5.206e-6
0.480, 4.128e-6
0.466, 2.361e-6
0.412, 1.383e-6
0.358, 8.453e-7
0.304, 4.223e-7
0.250, -2.061e-7
0.196, -1.514e-6
0.142, -3.628e-6
0.088, -6.031e-6
0.034, -7.994e-6
-0.020, -8.995e-6
-0.074, -8.913e-6
-0.128, -7.964e-6
-0.182, -6.727e-6
-0.236, -5.619e-6
-0.290, -4.799e-6
-0.256, -2.674e-6
-0.202, -1.621e-6
-0.148, -9.737e-7
-0.094, -3.505e-7
-0.040, 6.099e-7
0.014, 2.105e-6
0.068, 4.013e-6
0.122, 5.996e-6
0.176, 7.542e-6
0.230, 8.331e-6
0.284, 8.127e-6
0.338, 7.206e-6
0.392, 6.055e-6
0.446, 4.974e-6
0.500, 4.050e-6
0.446, 2.066e-6
0.392, 1.250e-6
0.338, 7.552e-7
0.284, 3.165e-7
0.230, -4.005e-7
0.176, -1.776e-6
0.122, -3.749e-6
0.068, -5.798e-6
0.014, -7.315e-6
-0.040, -7.990e-6
-0.094, -7.785e-6
-0.148, -7.005e-6
-0.202, -6.080e-6
-0.256, -5.243e-6
-0.290, -3.962e-6
-0.236, -2.215e-6
-0.182, -1.351e-6
-0.128, -7.653e-7
-0.074, -1.441e-7
-0.020, 7.946e-7
0.034, 2.151e-6
0.088, 3.803e-6
0.142, 5.432e-6
0.196, 6.668e-6
0.250, 7.251e-6
0.304, 7.110e-6
0.358, 6.474e-6
0.412, 5.623e-6
0.466, 4.762e-6
0.480, 3.159e-6
0.426, 1.804e-6
0.372, 1.108e-6
0.318, 6.486e-7
0.264, 1.920e-7
0.210, -5.888e-7
0.156, -1.946e-6
0.102, -3.708e-6
0.048, -5.386e-6
-0.006, -6.543e-6
-0.060, -7.004e-6
-0.114, -6.799e-6
-0.168, -6.223e-6
-0.222, -5.555e-6
-0.276, -4.949e-6
-0.270, -3.120e-6
-0.216, -1.826e-6
-0.162, -1.103e-6
-0.108, -5.670e-7
-0.054, 3.884e-8
-0.000, 9.108e-7
0.054, 2.101e-6
0.108, 3.526e-6
0.162, 4.820e-6
0.216, 5.815e-6
0.270, 6.306e-6
0.324, 6.284e-6
0.378, 5.874e-6
0.432, 5.248e-6
0.486, 4.559e-6
0.460, 2.614e-6
0.406, 1.560e-6
0.352, 9.612e-7
0.298, 5.316e-7
0.244, 5.779e-8
0.190, -7.526e-7
0.136, -2.026e-6
0.082, -3.539e-6
0.028, -4.879e-6
-0.026, -5.772e-6
-0.080, -6.102e-6
-0.134, -5.966e-6
-0.188, -5.586e-6
-0.242, -5.123e-6
-0.296, -4.725e-6
-0.250, -2.500e-6
-0.196, -1.486e-6
-0.142, -8.736e-7
-0.088, -3.839e-7
-0.034, 1.859e-7
0.020, 9.667e-7
0.074, 1.987e-6
0.128, 3.153e-6
0.182, 4.225e-6
0.236, 5.056e-6
0.290, 5.522e-6
0.344, 5.610e-6
0.398, 5.366e-6
0.452, 4.908e-6
0.494, 3.947e-6
0.440, 2.171e-6
0.386, 1.327e-6
0.332, 8.109e-7
0.278, 4.080e-7
0.224, -7.902e-8
0.170, -8.850e-7
0.116, -2.034e-6
0.062, -3.298e-6
0.008, -4.367e-6
-0.046, -5.083e-6
-0.100, -5.346e-6
-0.154, -5.300e-6
-0.208, -5.078e-6
-0.262, -4.779e-6
-0.284, -3.563e-6
-0.230, -2.002e-6
-0.176, -1.192e-6
-0.122, -6.655e-7
-0.068, -2.194e-7
-0.014, 3.009e-7
0.040, 9.877e-7
0.094, 1.878e-6
0.148, 2.811e-6
0.202, 3.712e-6
0.256, 4.439e-6
0.310, 4.907e-6
0.364, 5.070e-6
0.418, 4.945e-6
0.472, 4.608e-6
0.474, 3.075e-6
0.420, 1.804e-6
0.366, 1.113e-6
0.312, 6.613e-7
0.258, 2.816e-7
0.204, -2.140e-7
0.150, -9.838e-7
0.096, -1.993e-6
0.042, -3.031e-6
-0.012, -3.895e-6
-0.066, -4.467e-6
-0.120, -4.734e-6
-0.174, -4.775e-6
-0.228, -4.672e-6
-0.282, -4.523e-6
-0.264, -2.754e-6
-0.210, -1.594e-6
-0.156, -9.348e-7
-0.102, -4.808e-7
-0.048, -7.747e-8
0.006, 3.882e-7
0.060, 9.860e-7
0.114, 1.746e-6
0.168, 2.520e-6
0.222, 3.297e-6
0.276, 3.953e-6
0.330, 4.419e-6
0.384, 4.631e-6
0.438, 4.586e-6
0.492, 4.343e-6
0.454, 2.455e-6
0.400, 1.486e-6
0.346, 9.151e-7
0.292, 5.172e-7
0.238, 1.543e-7
0.184, -3.393e-7
0.130, -1.056e-6
0.076, -1.925e-6
0.022, -2.780e-6
-0.032, -3.502e-6
-0.086, -3.984e-6
-0.140, -4.261e-6
-0.194, -4.371e-6
-0.248, -4.366e-6
-0.298, -4.103e-6
-0.244, -2.154e-6
-0.190, -1.257e-6
-0.136, -7.124e-7
-0.082, -3.205e-7
-0.028, 4.201e-8
0.026, 4.571e-7
0.080, 9.788e-7
0.134, 1.614e-6
0.188, 2.297e-6
0.242, 2.982e-6
0.296, 3.589e-6
0.350, 4.043e-6
0.404, 4.276e-6
0.458, 4.281e-6
0.488, 3.440e-6
0.434, 1.964e-6
0.380, 1.206e-6
0.326, 7.305e-7
0.272, 3.776e-7
0.218, 2.759e-8
0.164, -4.547e-7
0.110, -1.107e-6
0.056, -1.850e-6
0.002, -2.565e-6
-0.052, -3.179e-6
-0.106, -3.615e-6
-0.160, -3.899e-6
-0.214, -4.062e-6
-0.268, -4.139e-6
-0.278, -2.997e-6
-0.224, -1.684e-6
-0.170, -9.744e-7
-0.116, -5.210e-7
-0.062, -1.811e-7
-0.008, 1.410e-7
0.046, 5.085e-7
0.100, 1.008e-6
0.154, 1.513e-6
0.208, 2.119e-6
0.262, 2.735e-6
0.316, 3.299e-6
0.370, 3.729e-6
0.424, 3.966e-6
0.478, 4.001e-6
0.468, 2.620e-6
0.414, 1.561e-6
0.360, 9.581e-7
0.306, 5.589e-7
0.252, 2.468e-7
0.198, -9.195e-8
0.144, -5.483e-7
0.090, -1.131e-6
0.036, -1.761e-6
-0.018, -2.377e-6
-0.072, -2.899e-6
-0.126, -3.309e-6
-0.180, -3.612e-6
-0.234, -3.815e-6
-0.288, -3.977e-6
-0.258, -2.281e-6
-0.204, -1.300e-6
-0.150, -7.316e-7
-0.096, -3.559e-7
-0.042, -6.164e-8
0.012, 2.204e-7
0.066, 5.428e-7
0.120, 9.589e-7
0.174, 1.427e-6
0.228, 1.971e-6
0.282, 2.533e-6
0.336, 3.056e-6
0.390, 3.462e-6
0.444, 3.697e-6
0.498, 3.754e-6
0.448, 2.029e-6
0.394, 1.232e-6
0.340, 7.477e-7
0.286, 4.109e-7
0.232, 1.291e-7
0.178, -1.953e-7
0.124, -6.153e-7
0.070, -1.123e-6
0.016, -1.660e-6
-0.038, -2.205e-6
-0.092, -2.668e-6
-0.146, -3.064e-6
-0.200, -3.385e-6
-0.254, -3.633e-6
-0.292, -3.266e-6
-0.238, -1.748e-6
-0.184, -9.927e-7
-0.130, -5.315e-7
-0.076, -2.175e-7
-0.022, 3.525e-8
0.032, 2.830e-7
0.086, 5.835e-7
0.140, 9.327e-7
0.194, 1.368e-6
0.248, 1.868e-6
0.302, 2.392e-6
0.356, 2.882e-6
0.410, 3.265e-6
0.464, 3.497e-6
0.482, 2.736e-6
0.428, 1.591e-6
0.374, 9.689e-7
0.320, 5.708e-7
0.266, 2.827e-7
0.212, 2.175e-8
0.158, -2.865e-7
0.104, -6.706e-7
0.050, -1.116e-6
-0.004, -1.589e-6
-0.058, -2.064e-6
-0.112, -2.501e-6
-0.166, -2.891e-6
-0.220, -3.226e-6
-0.274, -3.522e-6
-0.272, -2.414e-6
-0.218, -1.337e-6
-0.164, -7.429e-7
-0.110, -3.690e-7
-0.056, -1.052e-7
-0.002, 1.136e-7
0.052, 3.325e-7
0.106, 6.368e-7
0.160, 9.264e-7
0.214, 1.335e-6
0.268, 1.803e-6
0.322, 2.297e-6
0.376, 2.756e-6
0.430, 3.116e-6
0.484, 3.340e-6
0.462, 2.087e-6
0.408, 1.246e-6
0.354, 7.526e-7
0.300, 4.215e-7
0.246, 1.702e-7
0.192, -7.481e-8
0.138, -3.658e-7
0.084, -7.164e-7
0.030, -1.112e-6
-0.024, -1.550e-6
-0.078, -1.975e-6
-0.132, -2.391e-6
-0.186, -2.781e-6
-0.240, -3.129e-6
-0.294, -3.481e-6
-0.252, -1.830e-6
-0.198, -1.018e-6
-0.144, -5.425e-7
-0.090, -2.362e-7
-0.036, -1.274e-8
0.018, 1.771e-7
0.072, 3.753e-7
0.126, 6.259e-7
0.180, 9.335e-7
0.234, 1.322e-6
0.288, 1.769e-6
0.342, 2.236e-6
0.396, 2.664e-6
0.450, 2.999e-6
0.496, 2.919e-6
0.442, 1.616e-6
0.388, 9.724e-7
0.334, 5.726e-7
0.280, 2.957e-7
0.226, 7.072e-8
0.172, -1.613e-7
0.118, -4.329e-7
0.064, -7.528e-7
0.010, -1.113e-6
-0.044, -1.518e-6
-0.098, -1.918e-6
-0.152, -2.319e-6
-0.206, -2.709e-6
-0.260, -3.079e-6
-0.286, -2.613e-6
-0.232, -1.391e-6
-0.178, -7.619e-7
-0.124, -3.811e-7
-0.070, -1.283e-7
-0.016, 6.148e-8
0.038, 2.290e-7
0.092, 4.493e-7
0.146, 6.460e-7
0.200, 9.505e-7
0.254, 1.323e-6
0.308, 1.756e-6
0.362, 2.198e-6
0.416, 2.598e-6
0.470, 2.910e-6
0.476, 2.156e-6
0.422, 1.259e-6
0.368, 7.544e-7
0.314, 4.260e-7
0.260, 1.897e-7
0.206, -1.485e-8
0.152, -2.353e-7
0.098, -4.907e-7
0.044, -7.859e-7
-0.010, -1.125e-6
-0.064, -1.497e-6
-0.118, -1.887e-6
-0.172, -2.287e-6
-0.226, -2.680e-6
-0.280, -3.083e-6
-0.266, -1.950e-6
-0.212, -1.059e-6
-0.158, -5.612e-7
-0.104, -2.520e-7
-0.050, -3.997e-8
0.004, 1.219e-7
0.058, 2.735e-7
0.112, 4.741e-7
0.166, 6.770e-7
0.220, 9.795e-7
0.274, 1.347e-6
0.328, 1.769e-6
0.382, 2.191e-6
0.436, 2.568e-6
0.490, 2.857e-6
0.456, 1.664e-6
0.402, 9.866e-7
0.348, 5.797e-7
0.294, 3.064e-7
0.240, 9.870e-8
0.186, -9.272e-8
0.132, -3.013e-7
0.078, -5.433e-7
0.024, -8.221e-7
-0.030, -1.168e-6
-0.084, -1.504e-6
-0.138, -1.889e-6
-0.192, -2.288e-6
-0.246, -2.690e-6
-0.300, -3.116e-6
-0.246, -1.479e-6
-0.192, -7.989e-7
-0.138, -4.009e-7
-0.084, -1.481e-7
-0.030, 2.977e-8
0.024, 1.717e-7
0.078, 3.144e-7
0.132, 4.883e-7
0.186, 7.155e-7
0.240, 1.016e-6
0.294, 1.382e-6
0.348, 1.794e-6
0.402, 2.197e-6
0.456, 2.551e-6
0.490, 2.313e-6
0.436, 1.298e-6
0.382, 7.709e-7
0.328, 4.374e-7
0.274, 2.057e-7
0.220, 2.084e-8
0.166, -1.612e-7
0.112, -3.612e-7
0.058, -5.922e-7
0.004, -8.603e-7
-0.050, -1.189e-6
-0.104, -1.527e-6
-0.158, -1.911e-6
-0.212, -2.311e-6
-0.266, -2.735e-6
-0.280, -2.140e-6
-0.226, -1.128e-6
-0.172, -5.939e-7
-0.118, -2.729e-7
-0.064, -6.275e-8
-0.010, 8.712e-8
0.044, 2.141e-7
0.098, 3.910e-7
0.152, 5.215e-7
0.206, 7.590e-7
0.260, 1.060e-6
0.314, 1.427e-6
0.368, 1.827e-6
0.422, 2.208e-6
0.476, 2.538e-6
0.470, 1.748e-6
0.416, 1.015e-6
0.362, 5.937e-7
0.308, 3.200e-7
0.254, 1.198e-7
0.200, -4.941e-8
0.146, -2.224e-7
0.092, -4.145e-7
0.038, -6.366e-7
-0.016, -9.073e-7
-0.070, -1.213e-6
-0.124, -1.560e-6
-0.178, -1.945e-6
-0.232, -2.353e-6
-0.286, -2.809e-6
-0.260, -1.606e-6
-0.206, -8.526e-7
-0.152, -4.293e-7
-0.098, -1.683e-7
-0.044, 6.047e-9
0.010, 1.347e-7
0.064, 2.509e-7
0.118, 3.972e-7
0.172, 5.608e-7
0.226, 8.041e-7
0.280, 1.110e-6
0.334, 1.477e-6
0.388, 1.864e-6
0.442, 2.226e-6
0.496, 2.532e-6
0.450, 1.353e-6
0.396, 7.931e-7
0.342, 4.519e-7
0.288, 2.212e-7
0.234, 4.620e-8
0.180, -1.125e-7
0.126, -2.769e-7
0.072, -4.635e-7
0.018, -6.808e-7
-0.036, -9.620e-7
-0.090, -1.258e-6
-0.144, -1.605e-6
-0.198, -1.996e-6
-0.252, -2.418e-6
-0.294, -2.441e-6
-0.240, -1.220e-6
-0.186, -6.379e-7
-0.132, -2.981e-7
-0.078, -8.439e-8
-0.024, 6.240e-8
0.030, 1.754e-7
0.084, 2.963e-7
0.138, 4.211e-7
0.192, 6.050e-7
0.246, 8.539e-7
0.300, 1.168e-6
0.354, 1.534e-6
0.408, 1.906e-6
0.462, 2.251e-6
0.484, 1.881e-6
0.430, 1.059e-6
0.376, 6.161e-7
0.322, 3.345e-7
0.268, 1.385e-7
0.214, -1.848e-8
0.160, -1.684e-7
0.106, -3.276e-7
0.052, -5.098e-7
-0.002, -7.287e-7
-0.056, -1.019e-6
-0.110, -1.302e-6
-0.164, -1.661e-6
-0.218, -2.058e-6
-0.272, -2.511e-6
-0.274, -1.784e-6
-0.220, -9.249e-7
-0.166, -4.665e-7
-0.112, -1.925e-7
-0.058, -1.545e-8
-0.004, 1.082e-7
0.050, 2.098e-7
0.104, 3.618e-7
0.158, 4.565e-7
0.212, 6.520e-7
0.266, 9.084e-7
0.320, 1.230e-6
0.374, 1.592e-6
0.428, 1.949e-6
0.482, 2.274e-6
0.464, 1.437e-6
0.410, 8.289e-7
0.356, 4.724e-7
0.302, 2.381e-7
0.248, 6.740e-8
0.194, -7.671e-8
0.140, -2.196e-7
0.086, -3.747e-7
0.032, -5.544e-7
-0.022, -7.854e-7
-0.076, -1.047e-6
-0.130, -1.359e-6
-0.184, -1.724e-6
-0.238, -2.133e-6
-0.292, -2.622e-6
-0.254, -1.339e-6
-0.200, -6.932e-7
-0.146, -3.293e-7
-0.092, -1.068e-7
-0.038, 4.046e-8
0.016, 1.468e-7
0.070, 2.411e-7
0.124, 3.546e-7
0.178, 4.954e-7
0.232, 6.997e-7
0.286, 9.678e-7
0.340, 1.295e-6
0.394, 1.650e-6
0.448, 1.991e-6
0.498, 2.121e-6
0.444, 1.118e-6
0.390, 6.453e-7
0.336, 3.545e-7
0.282, 1.568e-7
0.228, 5.948e-9
0.174, -1.296e-7
0.120, -2.662e-7
0.066, -4.188e-7
0.012, -5.994e-7
-0.042, -8.390e-7
-0.096, -1.102e-6
-0.150, -1.423e-6
-0.204, -1.798e-6
-0.258, -2.230e-6
-0.288, -2.031e-6
-0.234, -1.015e-6
-0.180, -5.123e-7
-0.126, -2.203e-7
-0.072, -3.626e-8
-0.018, 8.592e-8
0.036, 1.796e-7
0.090, 3.038e-7
0.144, 3.818e-7
0.198, 5.396e-7
0.252, 7.534e-7
0.306, 1.033e-6
0.360, 1.362e-6
0.414, 1.707e-6
0.468, 2.035e-6
0.478, 1.555e-6
0.424, 8.740e-7
0.370, 4.972e-7
0.316, 2.572e-7
0.262, 8.668e-8
0.208, -4.914e-8
0.154, -1.773e-7
0.100, -3.103e-7
0.046, -4.616e-7
-0.008, -6.492e-7
-0.062, -8.828e-7
-0.116, -1.158e-6
-0.170, -1.492e-6
-0.224, -1.880e-6
-0.278, -2.343e-6
-0.268, -1.496e-6
-0.214, -7.623e-7
-0.160, -3.668e-7
-0.106, -1.311e-7
-0.052, 2.025e-8
0.002, 1.246e-7
0.056, 2.086e-7
0.110, 3.271e-7
0.164, 4.157e-7
0.218, 5.838e-7
0.272, 8.093e-7
0.326, 1.098e-6
0.380, 1.425e-6
0.434, 1.759e-6
0.488, 2.071e-6
0.458, 1.193e-6
0.404, 6.793e-7
0.350, 3.759e-7
0.296, 1.745e-7
0.242, 2.665e-8
0.188, -9.932e-8
0.134, -2.202e-7
0.080, -3.508e-7
0.026, -5.032e-7
-0.028, -7.087e-7
-0.082, -9.349e-7
-0.136, -1.223e-6
-0.190, -1.568e-6
-0.244, -1.977e-6
-0.298, -2.488e-6
-0.248, -1.125e-6
-0.194, -5.663e-7
-0.140, -2.509e-7
-0.086, -5.823e-8
-0.032, 6.684e-8
0.022, 1.568e-7
0.076, 2.360e-7
0.130, 3.295e-7
0.184, 4.545e-7
0.238, 6.308e-7
0.292, 8.709e-7
0.346, 1.167e-6
0.400, 1.491e-6
0.454, 1.814e-6
0.492, 1.728e-6
0.438, 9.289e-7
0.384, 5.261e-7
0.330, 2.772e-7
0.276, 1.055e-7
0.222, -2.550e-8
0.168, -1.437e-7
0.114, -2.610e-7
0.060, -3.904e-7
0.006, -5.458e-7
-0.048, -7.784e-7
-0.102, -9.941e-7
-0.156, -1.295e-6
-0.210, -1.654e-6
-0.264, -2.093e-6
-0.282, -1.711e-6
-0.228, -8.474e-7
-0.174, -4.116e-7
-0.120, -1.579e-7
-0.066, 7.671e-10
-0.012, 1.055e-7
0.042, 1.849e-7
0.096, 3.038e-7
0.150, 3.571e-7
0.204, 4.960e-7
0.258, 6.842e-7
0.312, 9.376e-7
0.366, 1.239e-6
0.420, 1.559e-6
0.474, 1.874e-6
0.472, 1.301e-6
0.418, 7.273e-7
0.364, 4.032e-7
0.310, 1.955e-7
0.256, 4.704e-8
0.202, -7.225e-8
0.148, -1.840e-7
0.094, -2.988e-7
0.040, -4.300e-7
-0.014, -5.973e-7
-0.068, -7.993e-7
-0.122, -1.060e-6
-0.176, -1.376e-6
-0.230, -1.756e-6
-0.284, -2.234e-6
-0.262, -1.270e-6
-0.208, -6.337e-7
-0.154, -2.879e-7
-0.100, -8.170e-8
-0.046, 4.850e-8
0.008, 1.380e-7
0.062, 2.100e-7
0.116, 3.010e-7
0.170, 3.905e-7
0.224, 5.400e-7
0.278, 7.448e-7
0.332, 1.010e-6
0.386, 1.314e-6
0.440, 1.631e-6
0.494, 1.932e-6
0.452, 1.011e-6
0.398, 5.682e-7
0.344, 3.039e-7
0.290, 1.268e-7
0.236, -3.790e-9
0.182, -1.155e-7
0.128, -2.224e-7
0.074, -3.372e-7
0.020, -4.710e-7
-0.034, -6.636e-7
-0.088, -8.661e-7
-0.142, -1.132e-6
-0.196, -1.462e-6
-0.250, -1.871e-6
-0.296, -2.042e-6
-0.242, -9.553e-7
-0.188, -4.655e-7
-0.134, -1.893e-7
-0.080, -2.072e-8
-0.026, 8.750e-8
0.028, 1.656e-7
0.082, 2.423e-7
0.136, 3.166e-7
0.190, 4.287e-7
0.244, 5.875e-7
0.298, 8.087e-7
0.352, 1.083e-6
0.406, 1.386e-6
0.460, 1.695e-6
0.486, 1.455e-6
0.432, 7.881e-7
0.378, 4.380e-7
0.324, 2.195e-7
0.270, 6.789e-8
0.216, -4.948e-8
0.162, -1.549e-7
0.108, -2.591e-7
0.054, -3.741e-7
0.000, -5.159e-7
-0.054, -7.006e-7
-0.108, -9.249e-7
-0.162, -1.211e-6
-0.216, -1.560e-6
-0.270, -2.004e-6
-0.276, -1.460e-6
-0.222, -7.151e-7
-0.168, -3.324e-7
-0.114, -1.095e-7
-0.060, 2.943e-8
-0.006, 1.203e-7
0.048, 1.897e-7
0.102, 3.022e-7
0.156, 3.429e-7
0.210, 4.685e-7
0.264, 6.408e-7
0.318, 8.768e-7
0.372, 1.157e-6
0.426, 1.459e-6
0.480, 1.761e-6
0.466, 1.110e-6
0.412, 6.154e-7
0.358, 3.321e-7
0.304, 1.488e-7
0.250, 1.696e-8
0.196, -9.158e-8
0.142, -1.910e-7
0.088, -2.942e-7
0.034, -4.123e-7
-0.020, -5.704e-7
-0.074, -7.518e-7
-0.128, -9.960e-7
-0.182, -1.295e-6
-0.236, -1.672e-6
-0.290, -2.164e-6
-0.256, -1.089e-6
-0.202, -5.298e-7
-0.148, -2.258e-7
-0.094, -4.374e-8
-0.040, 6.994e-8
0.014, 1.483e-7
0.068, 2.115e-7
0.122, 2.883e-7
0.176, 3.758e-7
0.230, 5.104e-7
0.284, 7.003e-7
0.338, 9.478e-7
0.392, 1.232e-6
0.446, 1.531e-6
0.500, 1.803e-6
0.446, 8.619e-7
0.392, 4.775e-7
0.338, 2.454e-7
0.284, 8.838e-8
0.230, -2.871e-8
0.176, -1.300e-7
0.122, -2.259e-7
0.068, -3.292e-7
0.014, -4.513e-7
-0.040, -6.222e-7
-0.094, -8.194e-7
-0.148, -1.072e-6
-0.202, -1.390e-6
-0.256, -1.799e-6
-0.290, -1.727e-6
-0.236, -8.148e-7
-0.182, -3.848e-7
-0.128, -1.400e-7
-0.074, 9.078e-9
-0.020, 1.039e-7
0.034, 1.720e-7
0.088, 2.621e-7
0.142, 3.072e-7
0.196, 4.111e-7
0.250, 5.574e-7
0.304, 7.644e-7
0.358, 1.021e-6
0.412, 1.307e-6
0.466, 1.602e-6
0.480, 1.242e-6
0.426, 6.724e-7
0.372, 3.660e-7
0.318, 1.727e-7
0.264, 3.705e-8
0.210, -6.895e-8
0.156, -1.646e-7
0.102, -2.602e-7
0.048, -3.641e-7
-0.006, -4.951e-7
-0.060, -6.673e-7
-0.114, -8.779e-7
-0.168, -1.152e-6
-0.222, -1.495e-6
-0.276, -1.946e-6
-0.270, -1.257e-6
-0.216, -6.069e-7
-0.162, -2.680e-7
-0.108, -6.953e-8
-0.054, 5.210e-8
-0.000, 1.339e-7
0.054, 1.938e-7
0.108, 2.870e-7
0.162, 3.331e-7
0.216, 4.489e-7
0.270, 6.117e-7
0.324, 8.342e-7
0.378, 1.098e-6
0.432, 1.383e-6
0.486, 1.674e-6
0.460, 9.555e-7
0.406, 5.253e-7
0.352, 2.758e-7
0.298, 1.111e-7
0.244, -8.039e-9
0.190, -1.072e-7
0.136, -1.981e-7
0.082, -2.918e-7
0.028, -4.002e-7
-0.026, -5.550e-7
-0.080, -7.184e-7
-0.134, -9.519e-7
-0.188, -1.241e-6
-0.242, -1.614e-6
-0.296, -2.119e-6
-0.250, -9.375e-7
-0.196, -4.448e-7
-0.142, -1.747e-7
-0.088, -1.317e-8
-0.034, 8.779e-8
0.020, 1.572e-7
0.074, 2.137e-7
0.128, 2.803e-7
0.182, 3.655e-7
0.236, 4.901e-7
0.290, 6.705e-7
0.344, 9.057e-7
0.398, 1.175e-6
0.452, 1.459e-6
0.494, 1.440e-6
0.440, 7.440e-7
0.386, 4.054e-7
0.332, 1.987e-7
0.278, 5.820e-8
0.224, -4.863e-8
0.170, -1.420e-7
0.116, -2.298e-7
0.062, -3.252e-7
0.008, -4.390e-7
-0.046, -6.029e-7
-0.100, -7.814e-7
-0.154, -1.028e-6
-0.208, -1.340e-6
-0.262, -1.751e-6
-0.284, -1.483e-6
-0.230, -6.988e-7
-0.176, -3.168e-7
-0.122, -9.944e-8
-0.068, 3.332e-8
-0.014, 1.175e-7
0.040, 1.780e-7
0.094, 2.746e-7
0.148, 3.013e-7
0.202, 3.983e-7
0.256, 5.371e-7
0.310, 7.346e-7
0.364, 9.772e-7
0.418, 1.247e-6
0.472, 1.529e-6
0.474, 1.070e-6
0.420, 5.772e-7
0.366, 3.068e-7
0.312, 1.332e-7
0.258, 1.137e-8
0.204, -8.663e-8
0.150, -1.736e-7
0.096, -2.612e-7
0.042, -3.581e-7
-0.012, -4.841e-7
-0.066, -6.409e-7
-0.120, -8.452e-7
-0.174, -1.112e-6
-0.228, -1.450e-6
-0.282, -1.908e-6
-0.264, -1.090e-6
-0.210, -5.163e-7
-0.156, -2.143e-7
-0.102, -3.642e-8
-0.048, 7.098e-8
0.006, 1.430e-7
0.060, 1.970e-7
0.114, 2.683e-7
0.168, 3.271e-7
0.222, 4.351e-7
0.276, 5.896e-7
0.330, 8.009e-7
0.384, 1.053e-6
0.438, 1.325e-6
0.492, 1.604e-6
0.454, 8.267e-7
0.400, 4.488e-7
0.346, 2.267e-7
0.292, 7.909e-8
0.238, -2.866e-8
0.184, -1.202e-7
0.130, -2.039e-7
0.076, -2.911e-7
0.022, -3.924e-7
-0.032, -5.440e-7
-0.086, -6.991e-7
-0.140, -9.183e-7
-0.194, -1.204e-6
-0.248, -1.576e-6
-0.298, -1.859e-6
-0.244, -8.108e-7
-0.190, -3.736e-7
-0.136, -1.321e-7
-0.082, 1.300e-8
-0.028, 1.024e-7
0.026, 1.648e-7
0.080, 2.205e-7
0.134, 2.756e-7
0.188, 3.577e-7
0.242, 4.767e-7
0.296, 6.487e-7
0.350, 8.732e-7
0.404, 1.130e-6
0.458, 1.404e-6
0.488, 1.236e-6
0.434, 6.452e-7
0.380, 3.452e-7
0.326, 1.604e-7
0.272, 3.267e-8
0.218, -6.512e-8
0.164, -1.514e-7
0.110, -2.334e-7
0.056, -3.228e-7
0.002, -4.307e-7
-0.052, -5.868e-7
-0.106, -7.563e-7
-0.160, -9.992e-7
-0.214, -1.306e-6
-0.268, -1.722e-6
-0.278, -1.287e-6
-0.224, -6.013e-7
-0.170, -2.607e-7
-0.116, -6.476e-8
-0.062, 5.338e-8
-0.008, 1.290e-7
0.046, 1.835e-7
0.100, 2.806e-7
0.154, 2.982e-7
0.208, 3.905e-7
0.262, 5.244e-7
0.316, 7.141e-7
0.370, 9.476e-7
0.424, 1.208e-6
0.478, 1.481e-6
0.468, 9.358e-7
0.414, 5.029e-7
0.360, 2.603e-7
0.306, 1.020e-7
0.252, -9.327e-9
0.198, -1.002e-7
0.144, -1.812e-7
0.090, -2.632e-7
0.036, -3.550e-7
-0.018, -4.808e-7
-0.072, -6.277e-7
-0.126, -8.250e-7
-0.180, -1.086e-6
-0.234, -1.422e-6
-0.288, -1.893e-6
-0.258, -9.503e-7
-0.204, -4.401e-7
-0.150, -1.698e-7
-0.096, -1.030e-8
-0.042, 8.677e-8
0.012, 1.514e-7
0.066, 2.003e-7
0.120, 2.608e-7
0.174, 3.247e-7
0.228, 4.266e-7
0.282, 5.769e-7
0.336, 7.803e-7
0.390, 1.023e-6
0.444, 1.286e-6
0.498, 1.557e-6
0.448, 7.250e-7
0.394, 3.882e-7
0.340, 1.882e-7
0.286, 5.390e-8
0.232, -4.586e-8
0.178, -1.315e-7
0.124, -2.100e-7
0.070, -2.922e-7
0.016, -3.892e-7
-0.038, -5.300e-7
-0.092, -6.857e-7
-0.146, -9.006e-7
-0.200, -1.180e-6
-0.254, -1.555e-6
-0.292, -1.566e-6
-0.238, -7.053e-7
-0.184, -3.139e-7
-0.130, -9.632e-8
-0.076, 3.427e-8
-0.022, 1.151e-7
0.032, 1.707e-7
0.086, 2.397e-7
0.140, 2.735e-7
0.194, 3.532e-7
0.248, 4.678e-7
0.302, 6.346e-7
0.356, 8.507e-7
0.410, 1.099e-6
0.464, 1.362e-6
0.482, 1.073e-6
0.428, 5.631e-7
0.374, 2.960e-7
0.320, 1.272e-7
0.266, 1.062e-8
0.212, -8.030e-8
0.158, -1.608e-7
0.104, -2.379e-7
0.050, -3.227e-7
-0.004, -4.273e-7
-0.058, -5.960e-7
-0.112, -7.426e-7
-0.166, -9.771e-7
-0.220, -1.283e-6
-0.274, -1.706e-6
-0.298, -1.953e-6