File: Data/2022-03-23 MQ HCF/CV-Carbon-NiHCF-2.txt
Mar. 22, 2022   11:46:51
Cyclic Voltammetry
File: d:\mq\20220322-pba stability\cv-carbon-nihcf-2.txt
Data Source:  Experiment
Instrument Model:  CHI840D
Header:
Note:

Init E (V) = 0
High E (V) = 0.8
Low E (V) = 0
Init P/N = P
Scan Rate (V/s) = 0.05
Segment = 100
Sample Interval (V) = 0.001
Quiet Time (sec) = 2
Sensitivity (A/V) = 1e-4

Segment 1:
Ep = 0.469V
ip = 5.301e-5A
Ah = 1.194e-4C

Segment 2:
Ep = 0.282V
ip = -2.900e-5A
Ah = -6.409e-5C

Segment 3:
Ep = 0.467V
ip = 5.347e-5A
Ah = 1.196e-4C

Segment 4:
Ep = 0.281V
ip = -2.951e-5A
Ah = -6.566e-5C

Segment 5:
Ep = 0.467V
ip = 5.349e-5A
Ah = 1.199e-4C

Segment 6:
Ep = 0.281V
ip = -2.938e-5A
Ah = -6.511e-5C

Segment 7:
Ep = 0.467V
ip = 5.354e-5A
Ah = 1.201e-4C

Segment 8:
Ep = 0.281V
ip = -2.966e-5A
Ah = -6.566e-5C

Segment 9:
Ep = 0.467V
ip = 5.357e-5A
Ah = 1.202e-4C

Segment 10:
Ep = 0.281V
ip = -2.988e-5A
Ah = -6.617e-5C

Segment 11:
Ep = 0.467V
ip = 5.365e-5A
Ah = 1.203e-4C

Segment 12:
Ep = 0.281V
ip = -3.007e-5A
Ah = -6.666e-5C

Segment 13:
Ep = 0.467V
ip = 5.370e-5A
Ah = 1.204e-4C

Segment 14:
Ep = 0.281V
ip = -3.026e-5A
Ah = -6.715e-5C

Segment 15:
Ep = 0.467V
ip = 5.377e-5A
Ah = 1.205e-4C

Segment 16:
Ep = 0.281V
ip = -3.037e-5A
Ah = -6.758e-5C

Segment 17:
Ep = 0.467V
ip = 5.388e-5A
Ah = 1.206e-4C

Segment 18:
Ep = 0.281V
ip = -3.103e-5A
Ah = -6.924e-5C

Segment 19:
Ep = 0.467V
ip = 5.390e-5A
Ah = 1.206e-4C

Segment 20:
Ep = 0.281V
ip = -3.121e-5A
Ah = -6.967e-5C

Segment 21:
Ep = 0.467V
ip = 5.397e-5A
Ah = 1.207e-4C

Segment 22:
Ep = 0.281V
ip = -3.136e-5A
Ah = -7.010e-5C

Segment 23:
Ep = 0.467V
ip = 5.401e-5A
Ah = 1.208e-4C

Segment 24:
Ep = 0.281V
ip = -3.155e-5A
Ah = -7.054e-5C

Segment 25:
Ep = 0.467V
ip = 5.405e-5A
Ah = 1.208e-4C

Segment 26:
Ep = 0.281V
ip = -3.170e-5A
Ah = -7.096e-5C

Segment 27:
Ep = 0.467V
ip = 5.408e-5A
Ah = 1.209e-4C

Segment 28:
Ep = 0.281V
ip = -3.188e-5A
Ah = -7.134e-5C

Segment 29:
Ep = 0.467V
ip = 5.411e-5A
Ah = 1.209e-4C

Segment 30:
Ep = 0.281V
ip = -3.201e-5A
Ah = -7.173e-5C

Segment 31:
Ep = 0.467V
ip = 5.420e-5A
Ah = 1.210e-4C

Segment 32:
Ep = 0.281V
ip = -3.214e-5A
Ah = -7.212e-5C

Segment 33:
Ep = 0.467V
ip = 5.424e-5A
Ah = 1.211e-4C

Segment 34:
Ep = 0.281V
ip = -3.230e-5A
Ah = -7.249e-5C

Segment 35:
Ep = 0.467V
ip = 5.426e-5A
Ah = 1.211e-4C

Segment 36:
Ep = 0.281V
ip = -3.244e-5A
Ah = -7.285e-5C

Segment 37:
Ep = 0.467V
ip = 5.436e-5A
Ah = 1.211e-4C

Segment 38:
Ep = 0.281V
ip = -3.254e-5A
Ah = -7.322e-5C

Segment 39:
Ep = 0.467V
ip = 5.443e-5A
Ah = 1.212e-4C

Segment 40:
Ep = 0.281V
ip = -3.268e-5A
Ah = -7.359e-5C

Segment 41:
Ep = 0.467V
ip = 5.445e-5A
Ah = 1.213e-4C

Segment 42:
Ep = 0.281V
ip = -3.284e-5A
Ah = -7.395e-5C

Segment 43:
Ep = 0.467V
ip = 5.446e-5A
Ah = 1.213e-4C

Segment 44:
Ep = 0.281V
ip = -3.299e-5A
Ah = -7.430e-5C

Segment 45:
Ep = 0.467V
ip = 5.447e-5A
Ah = 1.214e-4C

Segment 46:
Ep = 0.281V
ip = -3.312e-5A
Ah = -7.464e-5C

Segment 47:
Ep = 0.467V
ip = 5.454e-5A
Ah = 1.214e-4C

Segment 48:
Ep = 0.281V
ip = -3.324e-5A
Ah = -7.497e-5C

Segment 49:
Ep = 0.467V
ip = 5.457e-5A
Ah = 1.214e-4C

Segment 50:
Ep = 0.282V
ip = -3.345e-5A
Ah = -7.464e-5C

Segment 51:
Ep = 0.467V
ip = 5.466e-5A
Ah = 1.215e-4C

Segment 52:
Ep = 0.282V
ip = -3.358e-5A
Ah = -7.497e-5C

Segment 53:
Ep = 0.467V
ip = 5.471e-5A
Ah = 1.215e-4C

Segment 54:
Ep = 0.282V
ip = -3.367e-5A
Ah = -7.527e-5C

Segment 55:
Ep = 0.467V
ip = 5.478e-5A
Ah = 1.216e-4C

Segment 56:
Ep = 0.282V
ip = -3.380e-5A
Ah = -7.555e-5C

Segment 57:
Ep = 0.467V
ip = 5.480e-5A
Ah = 1.216e-4C

Segment 58:
Ep = 0.282V
ip = -3.392e-5A
Ah = -7.586e-5C

Segment 59:
Ep = 0.467V
ip = 5.479e-5A
Ah = 1.216e-4C

Segment 60:
Ep = 0.282V
ip = -3.404e-5A
Ah = -7.618e-5C

Segment 61:
Ep = 0.467V
ip = 5.484e-5A
Ah = 1.216e-4C

Segment 62:
Ep = 0.282V
ip = -3.414e-5A
Ah = -7.648e-5C

Segment 63:
Ep = 0.467V
ip = 5.489e-5A
Ah = 1.217e-4C

Segment 64:
Ep = 0.282V
ip = -3.424e-5A
Ah = -7.677e-5C

Segment 65:
Ep = 0.467V
ip = 5.491e-5A
Ah = 1.217e-4C

Segment 66:
Ep = 0.282V
ip = -3.436e-5A
Ah = -7.704e-5C

Segment 67:
Ep = 0.467V
ip = 5.495e-5A
Ah = 1.218e-4C

Segment 68:
Ep = 0.282V
ip = -3.444e-5A
Ah = -7.732e-5C

Segment 69:
Ep = 0.467V
ip = 5.500e-5A
Ah = 1.217e-4C

Segment 70:
Ep = 0.282V
ip = -3.453e-5A
Ah = -7.758e-5C

Segment 71:
Ep = 0.467V
ip = 5.501e-5A
Ah = 1.218e-4C

Segment 72:
Ep = 0.282V
ip = -3.463e-5A
Ah = -7.784e-5C

Segment 73:
Ep = 0.467V
ip = 5.505e-5A
Ah = 1.218e-4C

Segment 74:
Ep = 0.283V
ip = -3.523e-5A
Ah = -7.936e-5C

Segment 75:
Ep = 0.466V
ip = 5.509e-5A
Ah = 1.218e-4C

Segment 76:
Ep = 0.283V
ip = -3.533e-5A
Ah = -7.961e-5C

Segment 77:
Ep = 0.466V
ip = 5.509e-5A
Ah = 1.219e-4C

Segment 78:
Ep = 0.283V
ip = -3.544e-5A
Ah = -7.986e-5C

Segment 79:
Ep = 0.466V
ip = 5.508e-5A
Ah = 1.218e-4C

Segment 80:
Ep = 0.283V
ip = -3.552e-5A
Ah = -8.009e-5C

Segment 81:
Ep = 0.466V
ip = 5.514e-5A
Ah = 1.218e-4C

Segment 82:
Ep = 0.283V
ip = -3.559e-5A
Ah = -8.033e-5C

Segment 83:
Ep = 0.466V
ip = 5.516e-5A
Ah = 1.219e-4C

Segment 84:
Ep = 0.283V
ip = -3.570e-5A
Ah = -8.056e-5C

Segment 85:
Ep = 0.466V
ip = 5.515e-5A
Ah = 1.219e-4C

Segment 86:
Ep = 0.283V
ip = -3.579e-5A
Ah = -8.079e-5C

Segment 87:
Ep = 0.466V
ip = 5.517e-5A
Ah = 1.219e-4C

Segment 88:
Ep = 0.283V
ip = -3.588e-5A
Ah = -8.101e-5C

Segment 89:
Ep = 0.466V
ip = 5.516e-5A
Ah = 1.219e-4C

Segment 90:
Ep = 0.283V
ip = -3.595e-5A
Ah = -8.125e-5C

Segment 91:
Ep = 0.466V
ip = 5.518e-5A
Ah = 1.219e-4C

Segment 92:
Ep = 0.283V
ip = -3.604e-5A
Ah = -8.146e-5C

Segment 93:
Ep = 0.466V
ip = 5.520e-5A
Ah = 1.219e-4C

Segment 94:
Ep = 0.283V
ip = -3.610e-5A
Ah = -8.166e-5C

Segment 95:
Ep = 0.466V
ip = 5.524e-5A
Ah = 1.219e-4C

Segment 96:
Ep = 0.283V
ip = -3.618e-5A
Ah = -8.188e-5C

Segment 97:
Ep = 0.466V
ip = 5.528e-5A
Ah = 1.219e-4C

Segment 98:
Ep = 0.284V
ip = -3.634e-5A
Ah = -8.133e-5C

Segment 99:
Ep = 0.466V
ip = 5.532e-5A
Ah = 1.219e-4C

Segment 100:
Ep = 0.284V
ip = -3.644e-5A
Ah = -8.154e-5C

Potential/V, Current/A

0.000, -5.270e-7
0.054, -1.186e-7
0.108, 1.049e-7
0.162, 7.537e-7
0.216, 3.245e-6
0.270, 1.059e-5
0.324, 2.665e-5
0.378, 5.006e-5
0.432, 7.155e-5
0.486, 7.586e-5
0.540, 4.017e-5
0.594, 1.198e-5
0.648, 5.157e-6
0.702, 2.971e-6
0.756, 2.049e-6
0.790, 1.302e-6
0.736, 7.628e-7
0.682, 3.529e-7
0.628, -4.080e-7
0.574, -2.773e-6
0.520, -9.537e-6
0.466, -2.025e-5
0.412, -3.475e-5
0.358, -5.509e-5
0.304, -7.273e-5
0.250, -6.778e-5
0.196, -2.400e-5
0.142, -7.512e-6
0.088, -3.550e-6
0.034, -2.216e-6
0.020, -1.122e-6
0.074, -5.863e-7
0.128, -1.257e-7
0.182, 1.081e-6
0.236, 5.073e-6
0.290, 1.552e-5
0.344, 3.524e-5
0.398, 5.950e-5
0.452, 7.653e-5
0.506, 6.686e-5
0.560, 2.389e-5
0.614, 8.032e-6
0.668, 3.906e-6
0.722, 2.416e-6
0.776, 1.752e-6
0.770, 9.787e-7
0.716, 5.688e-7
0.662, 1.169e-7
0.608, -9.913e-7
0.554, -4.533e-6
0.500, -1.307e-5
0.446, -2.465e-5
0.392, -4.162e-5
0.338, -6.243e-5
0.284, -7.504e-5
0.230, -5.386e-5
0.176, -1.500e-5
0.122, -5.587e-6
0.068, -2.971e-6
0.014, -2.015e-6
0.040, -9.194e-7
0.094, -4.644e-7
0.148, 1.411e-7
0.202, 2.052e-6
0.256, 7.949e-6
0.310, 2.180e-5
0.364, 4.427e-5
0.418, 6.754e-5
0.472, 7.762e-5
0.526, 5.076e-5
0.580, 1.500e-5
0.634, 5.885e-6
0.688, 3.179e-6
0.742, 2.086e-6
0.796, 1.589e-6
0.750, 7.956e-7
0.696, 4.165e-7
0.642, -1.632e-7
0.588, -1.829e-6
0.534, -7.024e-6
0.480, -1.699e-5
0.426, -2.997e-5
0.372, -4.918e-5
0.318, -6.896e-5
0.264, -7.314e-5
0.210, -3.515e-5
0.156, -9.981e-6
0.102, -4.319e-6
0.048, -2.543e-6
0.006, -1.439e-6
0.060, -7.379e-7
0.114, -3.056e-7
0.168, 5.820e-7
0.222, 3.556e-6
0.276, 1.193e-5
0.330, 2.938e-5
0.384, 5.344e-5
0.438, 7.381e-5
0.492, 7.355e-5
0.546, 3.292e-5
0.600, 1.005e-5
0.654, 4.523e-6
0.708, 2.652e-6
0.762, 1.847e-6
0.784, 1.109e-6
0.730, 6.494e-7
0.676, 2.498e-7
0.622, -5.575e-7
0.568, -3.117e-6
0.514, -1.025e-5
0.460, -2.117e-5
0.406, -3.636e-5
0.352, -5.694e-5
0.298, -7.355e-5
0.244, -6.479e-5
0.190, -2.119e-5
0.136, -7.042e-6
0.082, -3.465e-6
0.028, -2.223e-6
0.026, -1.104e-6
0.080, -5.868e-7
0.134, -8.881e-8
0.188, 1.297e-6
0.242, 5.800e-6
0.296, 1.725e-5
0.350, 3.796e-5
0.404, 6.219e-5
0.458, 7.738e-5
0.512, 6.231e-5
0.566, 2.023e-5
0.620, 7.157e-6
0.674, 3.597e-6
0.728, 2.269e-6
0.782, 1.668e-6
0.764, 8.990e-7
0.710, 5.049e-7
0.656, 3.739e-8
0.602, -1.167e-6
0.548, -5.052e-6
0.494, -1.396e-5
0.440, -2.592e-5
0.386, -4.362e-5
0.332, -6.433e-5
0.278, -7.491e-5
0.224, -4.853e-5
0.170, -1.336e-5
0.116, -5.228e-6
0.062, -2.873e-6
0.008, -1.992e-6
0.046, -8.807e-7
0.100, -4.320e-7
0.154, 2.375e-7
0.208, 2.418e-6
0.262, 8.979e-6
0.316, 2.392e-5
0.370, 4.705e-5
0.424, 6.971e-5
0.478, 7.703e-5
0.532, 4.478e-5
0.586, 1.302e-5
0.640, 5.350e-6
0.694, 2.969e-6
0.748, 1.983e-6
0.798, 1.330e-6
0.744, 7.336e-7
0.690, 3.595e-7
0.636, -2.553e-7
0.582, -2.103e-6
0.528, -7.749e-6
0.474, -1.800e-5
0.420, -3.162e-5
0.366, -5.138e-5
0.312, -7.047e-5
0.258, -7.134e-5
0.204, -3.033e-5
0.150, -9.024e-6
0.096, -4.070e-6
0.042, -2.464e-6
0.012, -1.328e-6
0.066, -7.023e-7
0.120, -2.567e-7
0.174, 7.438e-7
0.228, 4.106e-6
0.282, 1.332e-5
0.336, 3.182e-5
0.390, 5.614e-5
0.444, 7.522e-5
0.498, 7.092e-5
0.552, 2.817e-5
0.606, 8.937e-6
0.660, 4.171e-6
0.714, 2.502e-6
0.768, 1.772e-6
0.778, 1.023e-6
0.724, 5.990e-7
0.670, 1.913e-7
0.616, -6.911e-7
0.562, -3.536e-6
0.508, -1.114e-5
0.454, -2.234e-5
0.400, -3.837e-5
0.346, -5.916e-5
0.292, -7.426e-5
0.238, -6.059e-5
0.184, -1.840e-5
0.130, -6.463e-6
0.076, -3.295e-6
0.022, -2.166e-6
0.032, -1.042e-6
0.086, -5.498e-7
0.140, -1.838e-8
0.194, 1.557e-6
0.248, 6.576e-6
0.302, 1.900e-5
0.356, 4.055e-5
0.410, 6.453e-5
0.464, 7.772e-5
0.518, 5.744e-5
0.572, 1.753e-5
0.626, 6.486e-6
0.680, 3.365e-6
0.734, 2.167e-6
0.788, 1.614e-6
0.758, 8.383e-7
0.704, 4.614e-7
0.650, -3.413e-8
0.596, -1.365e-6
0.542, -5.652e-6
0.488, -1.496e-5
0.434, -2.741e-5
0.380, -4.586e-5
0.326, -6.628e-5
0.272, -7.430e-5
0.218, -4.263e-5
0.164, -1.188e-5
0.110, -4.884e-6
0.056, -2.767e-6
0.002, -1.959e-6
0.052, -8.367e-7
0.106, -3.927e-7
0.160, 3.461e-7
0.214, 2.811e-6
0.268, 1.005e-5
0.322, 2.603e-5
0.376, 4.966e-5
0.430, 7.151e-5
0.484, 7.587e-5
0.538, 3.931e-5
0.592, 1.152e-5
0.646, 4.932e-6
0.700, 2.808e-6
0.754, 1.913e-6
0.792, 1.200e-6
0.738, 6.909e-7
0.684, 3.162e-7
0.630, -3.496e-7
0.576, -2.407e-6
0.522, -8.542e-6
0.468, -1.910e-5
0.414, -3.347e-5
0.360, -5.369e-5
0.306, -7.183e-5
0.252, -6.881e-5
0.198, -2.604e-5
0.144, -8.173e-6
0.090, -3.846e-6
0.036, -2.389e-6
0.018, -1.241e-6
0.072, -6.636e-7
0.126, -2.035e-7
0.180, 9.319e-7
0.234, 4.705e-6
0.288, 1.479e-5
0.342, 3.425e-5
0.396, 5.864e-5
0.450, 7.627e-5
0.504, 6.765e-5
0.558, 2.425e-5
0.612, 8.041e-6
0.666, 3.885e-6
0.720, 2.385e-6
0.774, 1.714e-6
0.772, 9.595e-7
0.718, 5.551e-7
0.664, 1.376e-7
0.610, -8.429e-7
0.556, -4.004e-6
0.502, -1.209e-5
0.448, -2.364e-5
0.394, -4.050e-5
0.340, -6.134e-5
0.286, -7.464e-5
0.232, -5.560e-5
0.178, -1.606e-5
0.124, -5.953e-6
0.070, -3.140e-6
0.016, -2.115e-6
0.038, -9.840e-7
0.092, -5.105e-7
0.146, 6.770e-8
0.200, 1.854e-6
0.254, 7.448e-6
0.308, 2.089e-5
0.362, 4.317e-5
0.416, 6.674e-5
0.470, 7.768e-5
0.524, 5.202e-5
0.578, 1.525e-5
0.632, 5.914e-6
0.686, 3.178e-6
0.740, 2.073e-6
0.794, 1.568e-6
0.752, 7.878e-7
0.698, 4.189e-7
0.644, -1.079e-7
0.590, -1.593e-6
0.536, -6.320e-6
0.482, -1.600e-5
0.428, -2.900e-5
0.374, -4.813e-5
0.320, -6.807e-5
0.266, -7.323e-5
0.212, -3.702e-5
0.158, -1.061e-5
0.104, -4.561e-6
0.050, -2.660e-6
0.004, -1.540e-6
0.058, -7.866e-7
0.112, -3.467e-7
0.166, 4.821e-7
0.220, 3.268e-6
0.274, 1.127e-5
0.328, 2.832e-5
0.382, 5.233e-5
0.436, 7.320e-5
0.490, 7.413e-5
0.544, 3.397e-5
0.598, 1.020e-5
0.652, 4.553e-6
0.706, 2.655e-6
0.760, 1.839e-6
0.786, 1.112e-6
0.732, 6.485e-7
0.678, 2.685e-7
0.624, -4.606e-7
0.570, -2.754e-6
0.516, -9.404e-6
0.462, -2.024e-5
0.408, -3.540e-5
0.354, -5.595e-5
0.300, -7.292e-5
0.246, -6.563e-5
0.192, -2.245e-5
0.138, -7.436e-6
0.084, -3.630e-6
0.030, -2.311e-6
0.024, -1.161e-6
0.078, -6.233e-7
0.132, -1.407e-7
0.186, 1.148e-6
0.240, 5.374e-6
0.294, 1.640e-5
0.348, 3.676e-5
0.402, 6.110e-5
0.456, 7.704e-5
0.510, 6.362e-5
0.564, 2.087e-5
0.618, 7.266e-6
0.672, 3.628e-6
0.726, 2.276e-6
0.780, 1.663e-6
0.766, 9.020e-7
0.712, 5.124e-7
0.658, 7.573e-8
0.604, -1.008e-6
0.550, -4.520e-6
0.496, -1.305e-5
0.442, -2.502e-5
0.388, -4.266e-5
0.334, -6.340e-5
0.280, -7.462e-5
0.226, -5.012e-5
0.172, -1.414e-5
0.118, -5.511e-6
0.064, -3.004e-6
0.010, -2.069e-6
0.044, -9.309e-7
0.098, -4.727e-7
0.152, 1.647e-7
0.206, 2.193e-6
0.260, 8.416e-6
0.314, 2.292e-5
0.368, 4.586e-5
0.422, 6.882e-5
0.476, 7.715e-5
0.530, 4.633e-5
0.584, 1.333e-5
0.638, 5.415e-6
0.692, 2.988e-6
0.746, 1.987e-6
0.800, 1.489e-6
0.746, 7.372e-7
0.692, 3.737e-7
0.638, -1.910e-7
0.584, -1.847e-6
0.530, -7.043e-6
0.476, -1.708e-5
0.422, -3.070e-5
0.368, -5.040e-5
0.314, -6.968e-5
0.260, -7.163e-5
0.206, -3.194e-5
0.152, -9.532e-6
0.098, -4.265e-6
0.044, -2.563e-6
0.010, -1.402e-6
0.064, -7.396e-7
0.118, -2.973e-7
0.172, 6.446e-7
0.226, 3.786e-6
0.280, 1.261e-5
0.334, 3.071e-5
0.388, 5.499e-5
0.442, 7.462e-5
0.496, 7.171e-5
0.550, 2.919e-5
0.604, 9.101e-6
0.658, 4.215e-6
0.712, 2.517e-6
0.766, 1.774e-6
0.780, 1.032e-6
0.726, 6.039e-7
0.672, 2.160e-7
0.618, -5.836e-7
0.564, -3.147e-6
0.510, -1.031e-5
0.456, -2.146e-5
0.402, -3.743e-5
0.348, -5.820e-5
0.294, -7.373e-5
0.240, -6.166e-5
0.186, -1.946e-5
0.132, -6.796e-6
0.078, -3.441e-6
0.024, -2.245e-6
0.030, -1.092e-6
0.084, -5.836e-7
0.138, -6.960e-8
0.192, 1.396e-6
0.246, 6.126e-6
0.300, 1.812e-5
0.354, 3.935e-5
0.408, 6.350e-5
0.462, 7.751e-5
0.516, 5.888e-5
0.570, 1.805e-5
0.624, 6.587e-6
0.678, 3.397e-6
0.732, 2.178e-6
0.786, 1.615e-6
0.760, 8.449e-7
0.706, 4.704e-7
0.652, 1.005e-8
0.598, -1.193e-6
0.544, -5.101e-6
0.490, -1.407e-5
0.436, -2.651e-5
0.382, -4.488e-5
0.328, -6.540e-5
0.274, -7.420e-5
0.220, -4.436e-5
0.166, -1.253e-5
0.112, -5.114e-6
0.058, -2.873e-6
0.004, -2.017e-6
0.050, -8.756e-7
0.104, -4.249e-7
0.158, 2.765e-7
0.212, 2.577e-6
0.266, 9.474e-6
0.320, 2.503e-5
0.374, 4.852e-5
0.428, 7.074e-5
0.482, 7.616e-5
0.536, 4.065e-5
0.590, 1.175e-5
0.644, 4.987e-6
0.698, 2.826e-6
0.752, 1.918e-6
0.794, 1.218e-6
0.740, 6.957e-7
0.686, 3.326e-7
0.632, -2.793e-7
0.578, -2.134e-6
0.524, -7.824e-6
0.470, -1.820e-5
0.416, -3.253e-5
0.362, -5.269e-5
0.308, -7.109e-5
0.254, -6.934e-5
0.200, -2.746e-5
0.146, -8.592e-6
0.092, -4.008e-6
0.038, -2.473e-6
0.016, -1.299e-6
0.070, -6.949e-7
0.124, -2.413e-7
0.178, 8.189e-7
0.232, 4.362e-6
0.286, 1.404e-5
0.340, 3.313e-5
0.394, 5.755e-5
0.448, 7.579e-5
0.502, 6.859e-5
0.556, 2.505e-5
0.610, 8.174e-6
0.664, 3.921e-6
0.718, 2.399e-6
0.772, 1.717e-6
0.774, 9.664e-7
0.720, 5.626e-7
0.666, 1.656e-7
0.612, -7.187e-7
0.558, -3.587e-6
0.504, -1.125e-5
0.450, -2.276e-5
0.396, -3.952e-5
0.342, -6.037e-5
0.288, -7.420e-5
0.234, -5.694e-5
0.180, -1.697e-5
0.126, -6.244e-6
0.072, -3.269e-6
0.018, -2.181e-6
0.036, -1.027e-6
0.090, -5.411e-7
0.144, 1.223e-8
0.198, 1.677e-6
0.252, 6.951e-6
0.306, 1.994e-5
0.360, 4.195e-5
0.414, 6.576e-5
0.468, 7.758e-5
0.522, 5.356e-5
0.576, 1.569e-5
0.630, 6.009e-6
0.684, 3.209e-6
0.738, 2.086e-6
0.792, 1.571e-6
0.754, 7.951e-7
0.700, 4.324e-7
0.646, -5.850e-8
0.592, -1.399e-6
0.538, -5.730e-6
0.484, -1.512e-5
0.430, -2.811e-5
0.376, -4.714e-5
0.322, -6.721e-5
0.268, -7.322e-5
0.214, -3.865e-5
0.160, -1.117e-5
0.106, -4.763e-6
0.052, -2.759e-6
0.002, -1.658e-6
0.056, -8.247e-7
0.110, -3.787e-7
0.164, 3.992e-7
0.218, 2.996e-6
0.272, 1.061e-5
0.326, 2.721e-5
0.380, 5.109e-5
0.434, 7.241e-5
0.488, 7.460e-5
0.542, 3.528e-5
0.596, 1.044e-5
0.650, 4.616e-6
0.704, 2.682e-6
0.758, 1.849e-6
0.788, 1.128e-6
0.734, 6.571e-7
0.680, 2.902e-7
0.626, -3.755e-7
0.572, -2.452e-6
0.518, -8.645e-6
0.464, -1.937e-5
0.410, -3.445e-5
0.356, -5.497e-5
0.302, -7.224e-5
0.248, -6.626e-5
0.194, -2.364e-5
0.140, -7.814e-6
0.086, -3.786e-6
0.032, -2.394e-6
0.022, -1.215e-6
0.076, -6.541e-7
0.130, -1.834e-7
0.184, 1.009e-6
0.238, 4.977e-6
0.292, 1.556e-5
0.346, 3.556e-5
0.400, 5.997e-5
0.454, 7.661e-5
0.508, 6.479e-5
0.562, 2.157e-5
0.616, 7.396e-6
0.670, 3.672e-6
0.724, 2.294e-6
0.778, 1.669e-6
0.768, 9.121e-7
0.714, 5.232e-7
0.660, 1.117e-7
0.606, -8.692e-7
0.552, -4.065e-6
0.498, -1.223e-5
0.444, -2.413e-5
0.390, -4.169e-5
0.336, -6.247e-5
0.282, -7.428e-5
0.228, -5.156e-5
0.174, -1.489e-5
0.120, -5.767e-6
0.066, -3.120e-6
0.012, -2.130e-6
0.042, -9.717e-7
0.096, -5.026e-7
0.150, 1.025e-7
0.204, 1.984e-6
0.258, 7.876e-6
0.312, 2.191e-5
0.366, 4.461e-5
0.420, 6.786e-5
0.474, 7.717e-5
0.528, 4.788e-5
0.582, 1.369e-5
0.636, 5.502e-6
0.690, 3.019e-6
0.744, 2.000e-6
0.798, 1.530e-6
0.748, 7.464e-7
0.694, 3.903e-7
0.640, -1.337e-7
0.586, -1.631e-6
0.532, -6.419e-6
0.478, -1.620e-5
0.424, -2.978e-5
0.370, -4.941e-5
0.316, -6.886e-5
0.262, -7.176e-5
0.208, -3.344e-5
0.154, -1.002e-5
0.100, -4.458e-6
0.046, -2.654e-6
0.008, -1.479e-6
0.062, -7.762e-7
0.116, -3.328e-7
0.170, 5.441e-7
0.224, 3.476e-6
0.278, 1.190e-5
0.332, 2.956e-5
0.386, 5.377e-5
0.440, 7.392e-5
0.494, 7.236e-5
0.548, 3.031e-5
0.602, 9.295e-6
0.656, 4.273e-6
0.710, 2.542e-6
0.764, 1.785e-6
0.782, 1.048e-6
0.728, 6.134e-7
0.674, 2.415e-7
0.620, -4.896e-7
0.566, -2.812e-6
0.512, -9.542e-6
0.458, -2.059e-5
0.404, -3.646e-5
0.350, -5.721e-5
0.296, -7.314e-5
0.242, -6.255e-5
0.188, -2.049e-5
0.134, -7.131e-6
0.080, -3.583e-6
0.026, -2.320e-6
0.028, -1.140e-6
0.082, -6.150e-7
0.136, -1.165e-7
0.190, 1.243e-6
0.244, 5.699e-6
0.298, 1.726e-5
0.352, 3.815e-5
0.406, 6.242e-5
0.460, 7.717e-5
0.514, 6.021e-5
0.568, 1.861e-5
0.622, 6.696e-6
0.676, 3.435e-6
0.730, 2.194e-6
0.784, 1.621e-6
0.762, 8.542e-7
0.708, 4.814e-7
0.654, 4.878e-8
0.600, -1.046e-6
0.546, -4.615e-6
0.492, -1.323e-5
0.438, -2.562e-5
0.384, -4.390e-5
0.330, -6.448e-5
0.276, -7.398e-5
0.222, -4.591e-5
0.168, -1.316e-5
0.114, -5.338e-6
0.060, -2.982e-6
0.006, -2.081e-6
0.048, -9.154e-7
0.102, -4.586e-7
0.156, 2.069e-7
0.210, 2.347e-6
0.264, 8.898e-6
0.318, 2.399e-5
0.372, 4.727e-5
0.426, 6.982e-5
0.480, 7.633e-5
0.534, 4.214e-5
0.588, 1.206e-5
0.642, 5.064e-6
0.696, 2.857e-6
0.750, 1.931e-6
0.796, 1.246e-6
0.742, 7.034e-7
0.688, 3.481e-7
0.634, -2.181e-7
0.580, -1.897e-6
0.526, -7.173e-6
0.472, -1.736e-5
0.418, -3.162e-5
0.364, -5.173e-5
0.310, -7.032e-5
0.256, -6.960e-5
0.202, -2.876e-5
0.148, -9.040e-6
0.094, -4.187e-6
0.040, -2.566e-6
0.014, -1.364e-6
0.068, -7.318e-7
0.122, -2.831e-7
0.176, 7.016e-7
0.230, 4.001e-6
0.284, 1.325e-5
0.338, 3.191e-5
0.392, 5.630e-5
0.446, 7.512e-5
0.500, 6.952e-5
0.554, 2.610e-5
0.608, 8.371e-6
0.662, 3.985e-6
0.716, 2.427e-6
0.770, 1.730e-6
0.776, 9.801e-7
0.722, 5.743e-7
0.668, 1.934e-7
0.614, -6.135e-7
0.560, -3.223e-6
0.506, -1.048e-5
0.452, -2.191e-5
0.398, -3.858e-5
0.344, -5.943e-5
0.290, -7.369e-5
0.236, -5.798e-5
0.182, -1.784e-5
0.128, -6.545e-6
0.074, -3.403e-6
0.020, -2.255e-6
0.034, -1.076e-6
0.088, -5.758e-7
0.142, -4.394e-8
0.196, 1.499e-6
0.250, 6.472e-6
0.304, 1.900e-5
0.358, 4.070e-5
0.412, 6.468e-5
0.466, 7.735e-5
0.520, 5.511e-5
0.574, 1.620e-5
0.628, 6.121e-6
0.682, 3.245e-6
0.736, 2.106e-6
0.790, 1.578e-6
0.756, 8.066e-7
0.702, 4.462e-7
0.648, -1.700e-8
0.594, -1.238e-6
0.540, -5.213e-6
0.486, -1.430e-5
0.432, -2.724e-5
0.378, -4.617e-5
0.324, -6.634e-5
0.270, -7.314e-5
0.216, -4.016e-5
0.162, -1.173e-5
0.108, -4.974e-6
0.054, -2.860e-6
0.000, -1.983e-6
0.054, -8.629e-7
0.108, -4.124e-7
0.162, 3.211e-7
0.216, 2.740e-6
0.270, 9.977e-6
0.324, 2.611e-5
0.378, 4.985e-5
0.432, 7.157e-5
0.486, 7.499e-5
0.540, 3.671e-5
0.594, 1.071e-5
0.648, 4.692e-6
0.702, 2.715e-6
0.756, 1.865e-6
0.790, 1.150e-6
0.736, 6.666e-7
0.682, 3.095e-7
0.628, -3.089e-7
0.574, -2.195e-6
0.520, -7.982e-6
0.466, -1.853e-5
0.412, -3.353e-5
0.358, -5.399e-5
0.304, -7.155e-5
0.250, -6.680e-5
0.196, -2.481e-5
0.142, -8.182e-6
0.088, -3.940e-6
0.034, -2.474e-6
0.020, -1.268e-6
0.074, -6.850e-7
0.128, -2.222e-7
0.182, 8.930e-7
0.236, 4.612e-6
0.290, 1.474e-5
0.344, 3.435e-5
0.398, 5.879e-5
0.452, 7.610e-5
0.506, 6.591e-5
0.560, 2.239e-5
0.614, 7.555e-6
0.668, 3.727e-6
0.722, 2.319e-6
0.776, 1.681e-6
0.770, 9.255e-7
0.716, 5.341e-7
0.662, 1.426e-7
0.608, -7.538e-7
0.554, -3.679e-6
0.500, -1.145e-5
0.446, -2.329e-5
0.392, -4.073e-5
0.338, -6.151e-5
0.284, -7.386e-5
0.230, -5.285e-5
0.176, -1.564e-5
0.122, -6.026e-6
0.068, -3.236e-6
0.014, -2.191e-6
0.040, -1.011e-6
0.094, -5.308e-7
0.148, 4.601e-8
0.202, 1.799e-6
0.256, 7.366e-6
0.310, 2.093e-5
0.364, 4.335e-5
0.418, 6.685e-5
0.472, 7.712e-5
0.526, 4.942e-5
0.580, 1.410e-5
0.634, 5.598e-6
0.688, 3.056e-6
0.742, 2.019e-6
0.796, 1.537e-6
0.750, 7.565e-7
0.696, 4.057e-7
0.642, -8.574e-8
0.588, -1.454e-6
0.534, -5.873e-6
0.480, -1.538e-5
0.426, -2.890e-5
0.372, -4.842e-5
0.318, -6.802e-5
0.264, -7.180e-5
0.210, -3.485e-5
0.156, -1.050e-5
0.102, -4.642e-6
0.048, -2.743e-6
0.006, -1.553e-6
0.060, -8.118e-7
0.114, -3.648e-7
0.168, 4.550e-7
0.222, 3.199e-6
0.276, 1.120e-5
0.330, 2.839e-5
0.384, 5.247e-5
0.438, 7.312e-5
0.492, 7.294e-5
0.546, 3.158e-5
0.600, 9.539e-6
0.654, 4.347e-6
0.708, 2.577e-6
0.762, 1.801e-6
0.784, 1.068e-6
0.730, 6.260e-7
0.676, 2.642e-7
0.622, -4.068e-7
0.568, -2.528e-6
0.514, -8.841e-6
0.460, -1.976e-5
0.406, -3.552e-5
0.352, -5.622e-5
0.298, -7.248e-5
0.244, -6.322e-5
0.190, -2.149e-5
0.136, -7.469e-6
0.082, -3.729e-6
0.028, -2.399e-6
0.026, -1.194e-6
0.080, -6.464e-7
0.134, -1.631e-7
0.188, 1.100e-6
0.242, 5.273e-6
0.296, 1.637e-5
0.350, 3.687e-5
0.404, 6.121e-5
0.458, 7.672e-5
0.512, 6.153e-5
0.566, 1.929e-5
0.620, 6.844e-6
0.674, 3.490e-6
0.728, 2.219e-6
0.782, 1.634e-6
0.764, 8.677e-7
0.710, 4.943e-7
0.656, 8.504e-8
0.602, -9.141e-7
0.548, -4.182e-6
0.494, -1.245e-5
0.440, -2.477e-5
0.386, -4.292e-5
0.332, -6.351e-5
0.278, -7.364e-5
0.224, -4.726e-5
0.170, -1.382e-5
0.116, -5.585e-6
0.062, -3.097e-6
0.008, -2.141e-6
0.046, -9.572e-7
0.100, -4.914e-7
0.154, 1.400e-7
0.208, 2.127e-6
0.262, 8.321e-6
0.316, 2.294e-5
0.370, 4.596e-5
0.424, 6.883e-5
0.478, 7.641e-5
0.532, 4.369e-5
0.586, 1.241e-5
0.640, 5.157e-6
0.694, 2.898e-6
0.748, 1.950e-6
0.798, 1.297e-6
0.744, 7.139e-7
0.690, 3.649e-7
0.636, -1.623e-7
0.582, -1.690e-6
0.528, -6.584e-6
0.474, -1.652e-5
0.420, -3.068e-5
0.366, -5.069e-5
0.312, -6.950e-5
0.258, -6.983e-5
0.204, -3.010e-5
0.150, -9.473e-6
0.096, -4.360e-6
0.042, -2.648e-6
0.012, -1.429e-6
0.066, -7.636e-7
0.120, -3.174e-7
0.174, 6.083e-7
0.228, 3.695e-6
0.282, 1.253e-5
0.336, 3.075e-5
0.390, 5.508e-5
0.444, 7.445e-5
0.498, 7.025e-5
0.552, 2.706e-5
0.606, 8.552e-6
0.660, 4.045e-6
0.714, 2.454e-6
0.768, 1.741e-6
0.778, 9.952e-7
0.724, 5.846e-7
0.670, 2.162e-7
0.616, -5.247e-7
0.562, -2.905e-6
0.508, -9.758e-6
0.454, -2.106e-5
0.400, -3.759e-5
0.346, -5.841e-5
0.292, -7.310e-5
0.238, -5.894e-5
0.184, -1.871e-5
0.130, -6.837e-6
0.076, -3.533e-6
0.022, -2.326e-6
0.032, -1.121e-6
0.086, -6.052e-7
0.140, -9.080e-8
0.194, 1.341e-6
0.248, 6.016e-6
0.302, 1.808e-5
0.356, 3.942e-5
0.410, 6.353e-5
0.464, 7.703e-5
0.518, 5.655e-5
0.572, 1.674e-5
0.626, 6.243e-6
0.680, 3.285e-6
0.734, 2.130e-6
0.788, 1.590e-6
0.758, 8.196e-7
0.704, 4.584e-7
0.650, 2.372e-8
0.596, -1.093e-6
0.542, -4.747e-6
0.488, -1.350e-5
0.434, -2.635e-5
0.380, -4.515e-5
0.326, -6.541e-5
0.272, -7.294e-5
0.218, -4.161e-5
0.164, -1.230e-5
0.110, -5.186e-6
0.056, -2.963e-6
0.002, -2.096e-6
0.052, -9.019e-7
0.106, -4.465e-7
0.160, 2.485e-7
0.214, 2.501e-6
0.268, 9.378e-6
0.322, 2.505e-5
0.376, 4.861e-5
0.430, 7.066e-5
0.484, 7.519e-5
0.538, 3.807e-5
0.592, 1.098e-5
0.646, 4.766e-6
0.700, 2.745e-6
0.754, 1.881e-6
0.792, 1.173e-6
0.738, 6.757e-7
0.684, 3.254e-7
0.630, -2.476e-7
0.576, -1.971e-6
0.522, -7.362e-6
0.468, -1.771e-5
0.414, -3.258e-5
0.360, -5.297e-5
0.306, -7.078e-5
0.252, -6.720e-5
0.198, -2.597e-5
0.144, -8.561e-6
0.090, -4.098e-6
0.036, -2.558e-6
0.018, -1.329e-6
0.072, -7.198e-7
0.126, -2.624e-7
0.180, 7.766e-7
0.234, 4.258e-6
0.288, 1.396e-5
0.342, 3.316e-5
0.396, 5.757e-5
0.450, 7.548e-5
0.504, 6.686e-5
0.558, 2.325e-5
0.612, 7.720e-6
0.666, 3.782e-6
0.720, 2.343e-6
0.774, 1.693e-6
0.772, 9.395e-7
0.718, 5.467e-7
0.664, 1.681e-7
0.610, -6.528e-7
0.556, -3.333e-6
0.502, -1.072e-5
0.448, -2.244e-5
0.394, -3.973e-5
0.340, -6.053e-5
0.287, -7.338e-5
0.233, -5.398e-5
0.179, -1.640e-5
0.125, -6.295e-6
0.071, -3.362e-6
0.017, -2.262e-6
0.037, -1.056e-6
0.091, -5.624e-7
0.145, -1.194e-8
0.199, 1.622e-6
0.253, 6.854e-6
0.307, 1.994e-5
0.361, 4.205e-5
0.415, 6.576e-5
0.469, 7.695e-5
0.523, 5.099e-5
0.577, 1.457e-5
0.631, 5.713e-6
0.685, 3.105e-6
0.739, 2.043e-6
0.793, 1.549e-6
0.753, 7.702e-7
0.699, 4.213e-7
0.645, -4.394e-8
0.591, -1.292e-6
0.537, -5.374e-6
0.483, -1.459e-5
0.429, -2.800e-5
0.375, -4.739e-5
0.321, -6.712e-5
0.267, -7.174e-5
0.213, -3.627e-5
0.159, -1.100e-5
0.105, -4.835e-6
0.051, -2.840e-6
0.003, -1.643e-6
0.057, -8.491e-7
0.111, -3.970e-7
0.165, 3.724e-7
0.219, 2.935e-6
0.273, 1.056e-5
0.327, 2.728e-5
0.381, 5.122e-5
0.435, 7.230e-5
0.489, 7.337e-5
0.543, 3.282e-5
0.597, 9.772e-6
0.651, 4.416e-6
0.705, 2.608e-6
0.759, 1.816e-6
0.787, 1.088e-6
0.733, 6.364e-7
0.679, 2.832e-7
0.625, -3.428e-7
0.571, -2.281e-6
0.517, -8.190e-6
0.463, -1.893e-5
0.409, -3.455e-5
0.355, -5.518e-5
0.301, -7.178e-5
0.247, -6.391e-5
0.193, -2.252e-5
0.139, -7.799e-6
0.085, -3.869e-6
0.031, -2.473e-6
0.023, -1.242e-6
0.077, -6.742e-7
0.131, -2.011e-7
0.185, 9.781e-7
0.239, 4.907e-6
0.293, 1.557e-5
0.347, 3.570e-5
0.401, 6.008e-5
0.455, 7.626e-5
0.509, 6.264e-5
0.563, 1.994e-5
0.617, 6.975e-6
0.671, 3.536e-6
0.725, 2.240e-6
0.779, 1.645e-6
0.767, 8.818e-7
0.713, 5.049e-7
0.659, 1.150e-7
0.605, -8.026e-7
0.551, -3.808e-6
0.497, -1.171e-5
0.443, -2.389e-5
0.389, -4.190e-5
0.335, -6.251e-5
0.281, -7.326e-5
0.227, -4.865e-5
0.173, -1.448e-5
0.119, -5.820e-6
0.065, -3.204e-6
0.011, -2.203e-6
0.043, -9.961e-7
0.097, -5.197e-7
0.151, 8.137e-8
0.205, 1.936e-6
0.259, 7.790e-6
0.313, 2.191e-5
0.367, 4.468e-5
0.421, 6.781e-5
0.475, 7.639e-5
0.529, 4.520e-5
0.583, 1.278e-5
0.637, 5.252e-6
0.691, 2.936e-6
0.745, 1.967e-6
0.799, 1.473e-6
0.747, 7.243e-7
0.693, 3.799e-7
0.639, -1.148e-7
0.585, -1.516e-6
0.531, -6.052e-6
0.477, -1.571e-5
0.423, -2.975e-5
0.369, -4.965e-5
0.315, -6.862e-5
0.261, -6.994e-5
0.207, -3.141e-5
0.153, -9.917e-6
0.099, -4.541e-6
0.045, -2.739e-6
0.009, -1.501e-6
0.063, -8.004e-7
0.117, -3.501e-7
0.171, 5.134e-7
0.225, 3.397e-6
0.279, 1.183e-5
0.333, 2.960e-5
0.387, 5.382e-5
0.441, 7.370e-5
0.495, 7.088e-5
0.549, 2.813e-5
0.603, 8.755e-6
0.657, 4.107e-6
0.711, 2.482e-6
0.765, 1.758e-6
0.781, 1.014e-6
0.727, 5.959e-7
0.673, 2.388e-7
0.619, -4.469e-7
0.565, -2.630e-6
0.511, -9.085e-6
0.457, -2.023e-5
0.403, -3.659e-5
0.349, -5.737e-5
0.295, -7.246e-5
0.241, -5.985e-5
0.187, -1.963e-5
0.133, -7.145e-6
0.079, -3.668e-6
0.025, -2.400e-6
0.029, -1.168e-6
0.083, -6.337e-7
0.137, -1.351e-7
0.191, 1.204e-6
0.245, 5.619e-6
0.299, 1.725e-5
0.353, 3.824e-5
0.407, 6.244e-5
0.461, 7.665e-5
0.515, 5.779e-5
0.569, 1.725e-5
0.623, 6.353e-6
0.677, 3.321e-6
0.731, 2.151e-6
0.785, 1.600e-6
0.761, 8.296e-7
0.707, 4.688e-7
0.653, 5.770e-8
0.599, -9.697e-7
0.545, -4.335e-6
0.491, -1.273e-5
0.437, -2.544e-5
0.383, -4.410e-5
0.329, -6.442e-5
0.275, -7.271e-5
0.221, -4.312e-5
0.167, -1.287e-5
0.113, -5.406e-6
0.059, -3.067e-6
0.005, -2.151e-6
0.049, -9.410e-7
0.103, -4.774e-7
0.157, 1.847e-7
0.211, 2.292e-6
0.265, 8.826e-6
0.319, 2.404e-5
0.373, 4.738e-5
0.427, 6.974e-5
0.481, 7.531e-5
0.535, 3.943e-5
0.589, 1.127e-5
0.643, 4.842e-6
0.697, 2.778e-6
0.751, 1.900e-6
0.795, 1.199e-6
0.741, 6.856e-7
0.687, 3.409e-7
0.633, -1.955e-7
0.579, -1.769e-6
0.525, -6.790e-6
0.471, -1.689e-5
0.417, -3.160e-5
0.363, -5.188e-5
0.309, -6.993e-5
0.255, -6.758e-5
0.201, -2.722e-5
0.147, -8.975e-6
0.093, -4.261e-6
0.039, -2.640e-6
0.015, -1.388e-6
0.069, -7.507e-7
0.123, -2.970e-7
0.177, 6.817e-7
0.231, 3.949e-6
0.285, 1.326e-5
0.339, 3.205e-5
0.393, 5.641e-5
0.447, 7.484e-5
0.501, 6.763e-5
0.555, 2.408e-5
0.609, 7.878e-6
0.663, 3.831e-6
0.717, 2.368e-6
0.771, 1.704e-6
0.775, 9.531e-7
0.721, 5.575e-7
0.667, 1.911e-7
0.613, -5.678e-7
0.559, -3.021e-6
0.505, -1.002e-5
0.451, -2.159e-5
0.397, -3.870e-5
0.343, -5.948e-5
0.289, -7.284e-5
0.235, -5.515e-5
0.181, -1.722e-5
0.127, -6.580e-6
0.073, -3.490e-6
0.019, -2.336e-6
0.035, -1.104e-6
0.089, -5.949e-7
0.143, -6.128e-8
0.197, 1.462e-6
0.251, 6.417e-6
0.305, 1.906e-5
0.359, 4.087e-5
0.413, 6.473e-5
0.467, 7.667e-5
0.521, 5.236e-5
0.575, 1.502e-5
0.629, 5.816e-6
0.683, 3.146e-6
0.737, 2.063e-6
0.791, 1.558e-6
0.755, 7.814e-7
0.701, 4.331e-7
0.647, -6.792e-9
0.593, -1.154e-6
0.539, -4.924e-6
0.485, -1.382e-5
0.431, -2.709e-5
0.377, -4.633e-5
0.323, -6.617e-5
0.269, -7.166e-5
0.215, -3.775e-5
0.161, -1.153e-5
0.107, -5.044e-6
0.053, -2.942e-6
0.001, -1.774e-6
0.055, -8.884e-7
0.109, -4.321e-7
0.163, 3.017e-7
0.217, 2.698e-6
0.271, 9.961e-6
0.325, 2.624e-5
0.379, 5.003e-5
0.433, 7.145e-5
0.487, 7.367e-5
0.541, 3.408e-5
0.595, 1.003e-5
0.649, 4.490e-6
0.703, 2.640e-6
0.757, 1.833e-6
0.789, 1.111e-6
0.735, 6.477e-7
0.681, 3.015e-7
0.627, -2.833e-7
0.573, -2.063e-6
0.519, -7.596e-6
0.465, -1.814e-5
0.411, -3.358e-5
0.357, -5.414e-5
0.303, -7.103e-5
0.249, -6.447e-5
0.195, -2.359e-5
0.141, -8.162e-6
0.087, -4.023e-6
0.033, -2.556e-6
0.021, -1.299e-6
0.075, -7.085e-7
0.129, -2.412e-7
0.183, 8.637e-7
0.237, 4.560e-6
0.291, 1.477e-5
0.345, 3.452e-5
0.399, 5.891e-5
0.453, 7.571e-5
0.507, 6.372e-5
0.561, 2.069e-5
0.615, 7.144e-6
0.669, 3.592e-6
0.723, 2.269e-6
0.777, 1.658e-6
0.769, 8.970e-7
0.715, 5.176e-7
0.661, 1.420e-7
0.607, -7.034e-7
0.553, -3.474e-6
0.499, -1.101e-5
0.445, -2.304e-5
0.391, -4.089e-5
0.337, -6.152e-5
0.283, -7.285e-5
0.229, -4.996e-5
0.175, -1.517e-5
0.121, -6.070e-6
0.067, -3.322e-6
0.013, -2.269e-6
0.041, -1.038e-6
0.095, -5.498e-7
0.149, 2.659e-8
0.203, 1.758e-6
0.257, 7.313e-6
0.311, 2.098e-5
0.365, 4.347e-5
0.419, 6.681e-5
0.473, 7.630e-5
0.527, 4.669e-5
0.581, 1.316e-5
0.635, 5.346e-6
0.689, 2.972e-6
0.743, 1.986e-6
0.797, 1.522e-6
0.749, 7.353e-7
0.695, 3.944e-7
0.641, -7.465e-8
0.587, -1.363e-6
0.533, -5.576e-6
0.479, -1.495e-5
0.425, -2.885e-5
0.371, -4.862e-5
0.317, -6.775e-5
0.263, -7.002e-5
0.209, -3.275e-5
0.155, -1.037e-5
0.101, -4.715e-6
0.047, -2.827e-6
0.007, -1.575e-6
0.061, -8.351e-7
0.115, -3.799e-7
0.169, 4.348e-7
0.223, 3.146e-6
0.277, 1.117e-5
0.331, 2.848e-5
0.385, 5.257e-5
0.439, 7.291e-5
0.493, 7.144e-5
0.547, 2.929e-5
0.601, 8.988e-6
0.655, 4.182e-6
0.709, 2.517e-6
0.763, 1.778e-6
0.783, 1.037e-6
0.729, 6.086e-7
0.675, 2.584e-7
0.621, -3.797e-7
0.567, -2.389e-6
0.513, -8.459e-6
0.459, -1.943e-5
0.405, -3.562e-5
0.351, -5.634e-5
0.297, -7.181e-5
0.243, -6.063e-5
0.189, -2.053e-5
0.135, -7.450e-6
0.081, -3.800e-6
0.027, -2.471e-6
0.003, -2.159e-6